time,gFx,gFy,gFz,ax,ay,az,wx,wy,wz
2022-04-27 12:13:19.9540,-0.021,0.979,-0.096,0.51,0.03,0.0,-0.09,0.63,-0.03
2022-04-27 12:13:19.9650,-0.029,0.987,-0.136,0.77,0.17,0.18,-0.34,-0.15,-0.17
2022-04-27 12:13:19.9740,-0.033,1.027,-0.165,0.8,-0.01,0.61,-0.51,-0.85,-0.28
2022-04-27 12:13:19.9840,-0.033,1.053,-0.176,0.8,-0.4,0.9,-0.63,-1.36,-0.38
2022-04-27 12:13:19.9950,-0.017,1.055,-0.163,0.71,-0.58,1.01,-0.73,-1.69,-0.49
2022-04-27 12:13:20.0050,0.008,1.048,-0.145,0.46,-0.55,0.91,-0.78,-1.82,-0.55
2022-04-27 12:13:20.0140,0.029,1.042,-0.131,0.16,-0.49,0.82,-0.77,-1.76,-0.56
2022-04-27 12:13:20.0250,0.044,1.021,-0.124,-0.09,-0.39,0.76,-0.71,-1.62,-0.53
2022-04-27 12:13:20.0340,0.066,1.007,-0.125,-0.31,-0.17,0.78,-0.63,-1.52,-0.46
2022-04-27 12:13:20.0440,0.078,0.999,-0.133,-0.58,-0.06,0.86,-0.54,-1.5,-0.35
2022-04-27 12:13:20.0550,0.072,0.977,-0.138,-0.67,0.04,1.01,-0.45,-1.51,-0.23
2022-04-27 12:13:20.0650,0.054,0.958,-0.119,-0.61,0.28,1.04,-0.36,-1.45,-0.13
2022-04-27 12:13:20.0740,0.033,0.95,-0.096,-0.43,0.43,0.86,-0.26,-1.35,-0.04
2022-04-27 12:13:20.0850,0.026,0.948,-0.071,-0.25,0.49,0.66,-0.18,-1.19,0.04
2022-04-27 12:13:20.0950,0.031,0.948,-0.055,-0.21,0.51,0.43,-0.1,-1.05,0.1
2022-04-27 12:13:20.1050,0.034,0.96,-0.049,-0.27,0.48,0.32,-0.06,-0.98,0.14
2022-04-27 12:13:20.1150,0.016,0.987,-0.045,-0.26,0.34,0.27,-0.06,-0.92,0.2
2022-04-27 12:13:20.1240,-0.057,1.031,-0.038,0.12,0.02,0.24,-0.06,-0.9,0.19
2022-04-27 12:13:20.1320,-0.044,1.067,-0.04,0.67,-0.42,0.2,-0.07,-0.89,0.11
2022-04-27 12:13:20.1430,-0.043,1.075,-0.024,0.5,-0.7,0.17,-0.08,-0.9,-0.02
2022-04-27 12:13:20.1530,-0.071,1.07,-0.021,0.57,-0.73,0.04,-0.1,-0.99,-0.16
2022-04-27 12:13:20.1640,-0.098,1.054,-0.037,0.84,-0.67,0.07,-0.09,-1.2,-0.3
2022-04-27 12:13:20.1740,-0.132,1.029,-0.046,1.1,-0.47,0.26,-0.07,-1.39,-0.45
2022-04-27 12:13:20.1840,-0.125,1.017,-0.046,1.32,-0.25,0.29,-0.03,-1.52,-0.58
2022-04-27 12:13:20.1940,-0.089,0.999,-0.048,1.09,-0.14,0.33,0.01,-1.47,-0.67
2022-04-27 12:13:20.2040,-0.048,0.976,-0.019,0.63,0.06,0.29,0.04,-1.18,-0.73
2022-04-27 12:13:20.2140,-0.021,0.963,0.001,0.19,0.27,-0.04,0.07,-0.81,-0.76
2022-04-27 12:13:20.2240,0.002,0.959,-0.002,-0.14,0.36,-0.16,0.14,-0.49,-0.75
2022-04-27 12:13:20.2340,0.023,0.951,-0.026,-0.43,0.41,-0.1,0.23,-0.36,-0.73
2022-04-27 12:13:20.2430,0.038,0.951,-0.048,-0.7,0.48,0.14,0.32,-0.32,-0.67
2022-04-27 12:13:20.2530,0.042,0.957,-0.049,-0.88,0.45,0.26,0.4,-0.32,-0.6
2022-04-27 12:13:20.2640,0.046,0.962,-0.051,-0.98,0.38,0.23,0.46,-0.32,-0.5
2022-04-27 12:13:20.2730,0.049,0.965,-0.046,-1.06,0.33,0.19,0.52,-0.32,-0.39
2022-04-27 12:13:20.2840,0.052,0.963,-0.045,-1.13,0.32,0.09,0.56,-0.32,-0.26
2022-04-27 12:13:20.2930,0.055,0.955,-0.044,-1.18,0.34,0.04,0.59,-0.31,-0.12
2022-04-27 12:13:20.3030,0.058,0.944,-0.037,-1.21,0.44,-0.05,0.59,-0.31,0.05
2022-04-27 12:13:20.3140,0.059,0.94,-0.033,-1.24,0.52,-0.17,0.58,-0.3,0.2
2022-04-27 12:13:20.3230,0.056,0.949,-0.032,-1.21,0.54,-0.25,0.56,-0.29,0.35
2022-04-27 12:13:20.3330,0.053,0.978,-0.029,-1.15,0.4,-0.32,0.52,-0.28,0.49
2022-04-27 12:13:20.3430,0.05,1.011,-0.026,-1.07,0.08,-0.39,0.45,-0.27,0.61
2022-04-27 12:13:20.3530,0.047,1.028,-0.021,-0.98,-0.21,-0.47,0.37,-0.26,0.72
2022-04-27 12:13:20.3630,0.044,1.036,-0.018,-0.87,-0.34,-0.54,0.27,-0.26,0.81
2022-04-27 12:13:20.3730,0.038,1.04,-0.016,-0.77,-0.41,-0.59,0.18,-0.25,0.87
2022-04-27 12:13:20.3830,0.029,1.036,-0.017,-0.62,-0.43,-0.61,0.07,-0.26,0.89
2022-04-27 12:13:20.3930,0.021,1.027,-0.016,-0.44,-0.37,-0.61,-0.05,-0.26,0.89
2022-04-27 12:13:20.4030,0.013,1.026,-0.014,-0.28,-0.29,-0.63,-0.16,-0.26,0.86
2022-04-27 12:13:20.4120,0.008,1.026,-0.015,-0.13,-0.29,-0.61,-0.27,-0.27,0.81
2022-04-27 12:13:20.4230,0.001,1.022,-0.018,0.0,-0.28,-0.57,-0.37,-0.28,0.73
2022-04-27 12:13:20.4320,-0.005,1.029,-0.022,0.13,-0.25,-0.5,-0.45,-0.29,0.63
2022-04-27 12:13:20.4410,-0.006,1.038,-0.025,0.24,-0.33,-0.42,-0.51,-0.31,0.51
2022-04-27 12:13:20.4520,-0.007,1.044,-0.028,0.29,-0.42,-0.34,-0.55,-0.32,0.4
2022-04-27 12:13:20.4620,-0.009,1.048,-0.032,0.34,-0.46,-0.25,-0.58,-0.32,0.28
2022-04-27 12:13:20.4720,-0.009,1.05,-0.035,0.37,-0.5,-0.16,-0.6,-0.33,0.15
2022-04-27 12:13:20.4830,-0.01,1.046,-0.04,0.39,-0.5,-0.07,-0.58,-0.33,0.03
2022-04-27 12:13:20.4920,-0.009,1.042,-0.043,0.39,-0.46,0.03,-0.55,-0.33,-0.08
2022-04-27 12:13:20.5020,-0.005,1.042,-0.047,0.36,-0.42,0.11,-0.5,-0.33,-0.17
2022-04-27 12:13:20.5130,-0.0,1.044,-0.049,0.3,-0.43,0.19,-0.43,-0.33,-0.24
2022-04-27 12:13:20.5220,0.008,1.042,-0.053,0.22,-0.44,0.25,-0.34,-0.32,-0.29
2022-04-27 12:13:20.5320,0.015,1.041,-0.056,0.11,-0.42,0.33,-0.24,-0.33,-0.31
2022-04-27 12:13:20.5420,0.021,1.04,-0.058,0.01,-0.41,0.37,-0.14,-0.32,-0.3
2022-04-27 12:13:20.5520,0.029,1.04,-0.058,-0.08,-0.4,0.4,-0.04,-0.32,-0.27
2022-04-27 12:13:20.5610,0.035,1.036,-0.057,-0.18,-0.4,0.4,0.05,-0.32,-0.23
2022-04-27 12:13:20.5720,0.039,1.022,-0.055,-0.25,-0.34,0.38,0.14,-0.32,-0.15
2022-04-27 12:13:20.5820,0.044,1.001,-0.053,-0.31,-0.18,0.35,0.21,-0.31,-0.07
2022-04-27 12:13:20.5910,0.045,0.971,-0.049,-0.36,0.04,0.29,0.28,-0.31,0.03
2022-04-27 12:13:20.6020,0.045,0.942,-0.049,-0.35,0.36,0.24,0.34,-0.31,0.12
2022-04-27 12:13:20.6110,0.046,0.925,-0.045,-0.35,0.61,0.2,0.38,-0.31,0.22
2022-04-27 12:13:20.6210,0.044,0.919,-0.04,-0.32,0.75,0.12,0.4,-0.3,0.32
2022-04-27 12:13:20.6320,0.043,0.928,-0.037,-0.28,0.77,0.03,0.4,-0.29,0.39
2022-04-27 12:13:20.6400,0.038,0.947,-0.034,-0.21,0.65,-0.04,0.39,-0.29,0.46
2022-04-27 12:13:20.6510,0.034,0.965,-0.03,-0.12,0.46,-0.11,0.35,-0.28,0.51
2022-04-27 12:13:20.6610,0.031,0.976,-0.025,-0.04,0.29,-0.18,0.29,-0.28,0.56
2022-04-27 12:13:20.6710,0.028,0.972,-0.024,0.04,0.21,-0.25,0.23,-0.27,0.57
2022-04-27 12:13:20.6810,0.022,0.965,-0.023,0.13,0.27,-0.28,0.17,-0.27,0.57
2022-04-27 12:13:20.6920,0.016,0.965,-0.024,0.25,0.32,-0.3,0.11,-0.27,0.55
2022-04-27 12:13:20.7010,0.01,0.982,-0.023,0.37,0.28,-0.3,0.03,-0.28,0.5
2022-04-27 12:13:20.7110,0.007,1.006,-0.021,0.46,0.08,-0.32,-0.05,-0.28,0.45
2022-04-27 12:13:20.7210,0.005,1.016,-0.018,0.52,-0.14,-0.34,-0.14,-0.29,0.38
2022-04-27 12:13:20.7300,0.002,1.01,-0.021,0.58,-0.2,-0.33,-0.22,-0.29,0.3
2022-04-27 12:13:20.7410,-0.001,0.992,-0.025,0.63,-0.11,-0.28,-0.28,-0.3,0.22
2022-04-27 12:13:20.7510,-0.002,0.97,-0.026,0.68,0.09,-0.22,-0.33,-0.3,0.14
2022-04-27 12:13:20.7610,-0.002,0.949,-0.027,0.69,0.31,-0.18,-0.37,-0.31,0.06
2022-04-27 12:13:20.7700,-0.002,0.939,-0.028,0.7,0.5,-0.14,-0.4,-0.31,-0.02
2022-04-27 12:13:20.7810,-0.002,0.938,-0.032,0.7,0.57,-0.08,-0.42,-0.31,-0.1
2022-04-27 12:13:20.7910,0.0,0.955,-0.035,0.67,0.55,-0.01,-0.42,-0.31,-0.16
2022-04-27 12:13:20.8000,0.004,0.976,-0.039,0.63,0.35,0.07,-0.41,-0.31,-0.21
2022-04-27 12:13:20.8100,0.01,0.979,-0.04,0.57,0.18,0.14,-0.39,-0.31,-0.24
2022-04-27 12:13:20.8210,0.014,0.971,-0.041,0.48,0.19,0.17,-0.35,-0.31,-0.25
2022-04-27 12:13:20.8290,0.018,0.961,-0.044,0.42,0.28,0.22,-0.31,-0.31,-0.25
2022-04-27 12:13:20.8390,0.021,0.944,-0.046,0.36,0.4,0.29,-0.26,-0.3,-0.23
2022-04-27 12:13:20.8490,0.023,0.929,-0.046,0.31,0.57,0.32,-0.19,-0.3,-0.21
2022-04-27 12:13:20.8600,0.027,0.93,-0.047,0.26,0.7,0.34,-0.14,-0.3,-0.18
2022-04-27 12:13:20.8700,0.033,0.964,-0.047,0.2,0.62,0.36,-0.08,-0.3,-0.12
2022-04-27 12:13:20.8800,0.038,1.017,-0.049,0.13,0.2,0.36,-0.01,-0.29,-0.06
2022-04-27 12:13:20.8900,0.041,1.058,-0.049,0.1,-0.3,0.38,0.04,-0.29,0.02
2022-04-27 12:13:20.9000,0.042,1.067,-0.049,0.06,-0.65,0.37,0.1,-0.29,0.09
2022-04-27 12:13:20.9100,0.039,1.037,-0.047,0.08,-0.63,0.36,0.14,-0.29,0.15
2022-04-27 12:13:20.9200,0.035,0.994,-0.045,0.12,-0.27,0.31,0.18,-0.28,0.2
2022-04-27 12:13:20.9300,0.028,0.958,-0.042,0.19,0.14,0.28,0.21,-0.28,0.23
2022-04-27 12:13:20.9400,0.025,0.93,-0.04,0.28,0.47,0.23,0.22,-0.27,0.26
2022-04-27 12:13:20.9490,0.022,0.919,-0.036,0.33,0.71,0.19,0.23,-0.27,0.27
2022-04-27 12:13:20.9590,0.021,0.93,-0.034,0.38,0.76,0.12,0.22,-0.27,0.28
2022-04-27 12:13:20.9700,0.019,0.958,-0.032,0.41,0.6,0.08,0.2,-0.27,0.27
2022-04-27 12:13:20.9800,0.016,0.989,-0.031,0.46,0.3,0.05,0.16,-0.27,0.25
2022-04-27 12:13:20.9890,0.011,1.001,-0.026,0.52,0.02,0.01,0.1,-0.26,0.21
2022-04-27 12:13:20.9990,0.008,0.999,-0.025,0.58,-0.05,-0.05,0.05,-0.26,0.16
2022-04-27 12:13:21.0100,0.005,0.979,-0.024,0.62,0.01,-0.05,-0.01,-0.27,0.11
2022-04-27 12:13:21.0200,0.003,0.954,-0.026,0.66,0.23,-0.06,-0.05,-0.27,0.04
2022-04-27 12:13:21.0300,0.0,0.934,-0.026,0.69,0.47,-0.04,-0.11,-0.27,-0.03
2022-04-27 12:13:21.0380,-0.0,0.921,-0.024,0.7,0.65,-0.03,-0.17,-0.28,-0.11
2022-04-27 12:13:21.0490,-0.0,0.909,-0.022,0.69,0.78,-0.04,-0.22,-0.28,-0.18
2022-04-27 12:13:21.0590,-0.001,0.907,-0.024,0.67,0.87,-0.03,-0.27,-0.28,-0.25
2022-04-27 12:13:21.0690,0.0,0.904,-0.026,0.65,0.89,0.02,-0.31,-0.28,-0.31
2022-04-27 12:13:21.0790,0.001,0.906,-0.03,0.6,0.92,0.08,-0.32,-0.28,-0.37
2022-04-27 12:13:21.0890,0.006,0.915,-0.034,0.55,0.87,0.15,-0.32,-0.27,-0.39
2022-04-27 12:13:21.0990,0.015,0.914,-0.036,0.45,0.81,0.21,-0.31,-0.27,-0.39
2022-04-27 12:13:21.1080,0.021,0.911,-0.039,0.33,0.82,0.26,-0.28,-0.27,-0.38
2022-04-27 12:13:21.1190,0.024,0.896,-0.041,0.24,0.88,0.32,-0.24,-0.26,-0.35
2022-04-27 12:13:21.1290,0.027,0.879,-0.044,0.18,1.05,0.35,-0.18,-0.26,-0.32
2022-04-27 12:13:21.1370,0.029,0.86,-0.046,0.12,1.21,0.4,-0.13,-0.26,-0.27
2022-04-27 12:13:21.1480,0.03,0.821,-0.045,0.08,1.44,0.43,-0.07,-0.25,-0.21
2022-04-27 12:13:21.1580,0.032,0.769,-0.043,0.05,1.86,0.41,-0.01,-0.24,-0.14
2022-04-27 12:13:21.1680,0.031,0.713,-0.042,0.02,2.4,0.4,0.06,-0.24,-0.08
2022-04-27 12:13:21.1790,0.031,0.669,-0.043,0.03,2.93,0.38,0.13,-0.24,-0.01
2022-04-27 12:13:21.1880,0.033,0.674,-0.043,0.03,3.27,0.39,0.2,-0.24,0.07
2022-04-27 12:13:21.1980,0.034,0.657,-0.041,0.01,3.17,0.36,0.2,-0.24,0.07
2022-04-27 12:13:21.2090,0.029,0.564,-0.039,0.03,3.54,0.3,0.31,-0.23,0.22
2022-04-27 12:13:21.2180,0.024,0.462,-0.035,0.11,4.5,0.26,0.35,-0.22,0.28
2022-04-27 12:13:21.2270,0.013,0.293,-0.025,0.19,5.53,0.17,0.36,-0.21,0.3
2022-04-27 12:13:21.2380,-0.003,0.022,-0.026,0.35,7.67,0.02,0.43,-0.22,0.29
2022-04-27 12:13:21.2480,-0.004,-0.003,-0.032,0.51,9.85,0.06,0.46,-0.23,0.29
2022-04-27 12:13:21.2580,-0.003,0.008,-0.022,0.52,9.75,0.0,0.48,-0.23,0.29
2022-04-27 12:13:21.2680,-0.004,0.006,-0.018,0.55,9.72,-0.12,0.48,-0.23,0.29
2022-04-27 12:13:21.2780,-0.004,0.01,-0.015,0.58,9.7,-0.21,0.47,-0.23,0.29
2022-04-27 12:13:21.2890,-0.003,0.008,-0.013,0.61,9.68,-0.29,0.46,-0.22,0.29
2022-04-27 12:13:21.2980,-0.003,0.006,-0.012,0.63,9.7,-0.34,0.44,-0.22,0.28
2022-04-27 12:13:21.3080,-0.004,0.004,-0.012,0.65,9.71,-0.39,0.42,-0.21,0.28
2022-04-27 12:13:21.3170,-0.004,0.005,-0.012,0.69,9.72,-0.44,0.41,-0.21,0.28
2022-04-27 12:13:21.3270,-0.004,0.005,-0.012,0.71,9.71,-0.48,0.39,-0.21,0.28
2022-04-27 12:13:21.3360,-0.003,0.005,-0.014,0.74,9.72,-0.51,0.38,-0.2,0.28
2022-04-27 12:13:21.3470,-0.004,0.005,-0.016,0.76,9.71,-0.53,0.38,-0.2,0.28
2022-04-27 12:13:21.3570,-0.004,0.006,-0.017,0.79,9.7,-0.55,0.38,-0.2,0.28
2022-04-27 12:13:21.3670,-0.003,0.004,-0.017,0.82,9.69,-0.58,0.39,-0.2,0.28
2022-04-27 12:13:21.3770,-0.003,0.006,-0.02,0.84,9.7,-0.61,0.4,-0.2,0.28
2022-04-27 12:13:21.3870,-0.003,0.006,-0.02,0.86,9.68,-0.63,0.41,-0.2,0.28
2022-04-27 12:13:21.3970,-0.004,0.005,-0.021,0.89,9.68,-0.67,0.42,-0.2,0.28
2022-04-27 12:13:21.4070,-0.003,0.006,-0.021,0.92,9.67,-0.71,0.43,-0.2,0.27
2022-04-27 12:13:21.4170,-0.003,0.007,-0.02,0.94,9.66,-0.75,0.44,-0.2,0.27
2022-04-27 12:13:21.4280,-0.004,0.006,-0.02,0.96,9.64,-0.8,0.44,-0.2,0.27
2022-04-27 12:13:21.4360,-0.004,0.006,-0.022,0.99,9.64,-0.84,0.44,-0.2,0.27
2022-04-27 12:13:21.4470,-0.003,0.006,-0.023,1.02,9.63,-0.87,0.45,-0.2,0.27
2022-04-27 12:13:21.4570,-0.002,0.007,-0.024,1.03,9.62,-0.9,0.46,-0.2,0.27
2022-04-27 12:13:21.4660,-0.004,0.007,-0.022,1.06,9.61,-0.95,0.46,-0.2,0.27
2022-04-27 12:13:21.4760,-0.004,0.007,-0.025,1.08,9.6,-1.0,0.46,-0.21,0.27
2022-04-27 12:13:21.4870,-0.004,0.007,-0.027,1.11,9.6,-1.01,0.47,-0.21,0.27
Time,-0.003,0.009,-0.026,1.13,9.58,-1.05,0.48,-0.22,0.27
2022-04-27 12:13:21.5070,-0.004,0.009,-0.027,1.15,9.56,-1.11,0.49,-0.22,0.27
2022-04-27 12:13:21.5170,-0.003,0.011,-0.027,1.18,9.54,-1.14,0.5,-0.23,0.27
2022-04-27 12:13:21.5270,-0.005,0.018,-0.025,1.2,9.52,-1.19,0.46,-0.37,0.14
2022-04-27 12:13:21.5360,-0.036,1.255,0.111,1.35,8.76,-1.26,-0.4,-0.86,0.15
2022-04-27 12:13:21.5460,0.061,1.644,0.707,1.23,-6.43,-4.24,-1.18,-1.66,0.16
2022-04-27 12:13:21.5560,0.099,1.356,0.086,0.49,-5.0,-7.99,-1.13,-2.62,0.2
2022-04-27 12:13:21.5660,0.169,1.48,-0.546,0.05,-4.02,0.09,-1.13,-2.62,0.2
2022-04-27 12:13:21.5760,0.225,1.503,-0.738,-0.67,-4.91,4.57,-0.43,-3.24,0.35
2022-04-27 12:13:21.5860,0.267,1.681,-1.126,-1.23,-5.3,6.81,-0.72,-2.89,0.26
2022-04-27 12:13:21.5960,0.436,2.147,-1.164,-1.68,-7.75,10.67,-1.47,-1.72,0.26
2022-04-27 12:13:21.6060,0.547,2.292,-0.695,-3.66,-12.39,9.11,-1.98,-0.34,0.26
2022-04-27 12:13:21.6160,0.594,2.104,-0.648,-4.37,-12.17,6.08,-1.98,-0.34,0.26
Time,0.031,2.313,0.769,-3.88,-10.99,4.17,-2.17,0.81,0.31
2022-04-27 12:13:21.6350,0.395,2.666,-0.544,1.13,-14.69,-9.92,0.41,-0.6,0.42
2022-04-27 12:13:21.6450,0.257,2.12,-0.915,-3.02,-15.12,9.07,1.43,-0.19,0.52
2022-04-27 12:13:21.6560,0.093,2.013,-0.497,-0.4,-10.37,5.81,1.53,-0.74,0.36
2022-04-27 12:13:21.6660,0.158,1.961,-0.642,0.24,-10.17,4.26,1.68,-0.55,0.09
2022-04-27 12:13:21.6740,0.183,1.836,-0.426,-0.34,-9.39,4.88,1.48,-0.96,-0.24
2022-04-27 12:13:21.6850,0.198,1.707,-0.177,-0.75,-7.93,1.4,1.29,-0.72,-0.36
2022-04-27 12:13:21.6950,0.144,1.664,-0.326,-0.5,-7.15,0.52,1.18,-0.65,-0.4
2022-04-27 12:13:21.7050,0.105,1.578,-0.293,-0.28,-6.34,1.56,0.79,-0.63,-0.46
2022-04-27 12:13:21.7160,0.143,1.572,-0.281,0.01,-6.02,0.81,0.44,-0.54,-0.49
2022-04-27 12:13:21.7260,0.115,1.526,-0.315,-0.35,-5.66,1.11,0.38,-0.43,-0.52
2022-04-27 12:13:21.7340,0.12,1.527,-0.285,-0.15,-5.43,1.05,0.42,-0.3,-0.54
2022-04-27 12:13:21.7440,0.1,1.49,-0.323,-0.25,-5.33,0.9,0.5,-0.25,-0.53
2022-04-27 12:13:21.7550,0.099,1.455,-0.348,-0.1,-4.98,1.25,0.6,-0.24,-0.54
2022-04-27 12:13:21.7650,0.093,1.418,-0.352,-0.19,-4.58,1.37,0.7,-0.23,-0.56
2022-04-27 12:13:21.7750,0.084,1.401,-0.331,-0.14,-4.34,1.29,0.74,-0.24,-0.57
2022-04-27 12:13:21.7850,0.079,1.379,-0.322,-0.14,-4.15,1.0,0.74,-0.22,-0.58
2022-04-27 12:13:21.7950,0.073,1.354,-0.313,-0.13,-3.94,0.87,0.69,-0.2,-0.56
2022-04-27 12:13:21.8040,0.069,1.323,-0.316,-0.16,-3.7,0.72,0.62,-0.18,-0.55
2022-04-27 12:13:21.8140,0.063,1.301,-0.324,-0.15,-3.43,0.72,0.55,-0.14,-0.54
2022-04-27 12:13:21.8250,0.058,1.289,-0.325,-0.15,-3.25,0.73,0.54,-0.11,-0.52
2022-04-27 12:13:21.8330,0.051,1.266,-0.329,-0.15,-3.12,0.69,0.55,-0.09,-0.5
2022-04-27 12:13:21.8440,0.041,1.251,-0.333,-0.12,-2.92,0.68,0.56,-0.07,-0.48
2022-04-27 12:13:21.8540,0.038,1.226,-0.339,-0.08,-2.77,0.68,0.55,-0.05,-0.47
2022-04-27 12:13:21.8640,0.031,1.216,-0.338,-0.1,-2.54,0.67,0.52,-0.04,-0.45
2022-04-27 12:13:21.8740,0.027,1.206,-0.341,-0.08,-2.5,0.62,0.48,-0.05,-0.43
2022-04-27 12:13:21.8850,0.022,1.192,-0.341,-0.07,-2.38,0.6,0.44,-0.06,-0.42
2022-04-27 12:13:21.8940,0.018,1.176,-0.337,-0.06,-2.26,0.55,0.4,-0.07,-0.4
2022-04-27 12:13:21.9040,0.014,1.158,-0.333,-0.06,-2.1,0.46,0.36,-0.07,-0.37
2022-04-27 12:13:21.9140,0.012,1.141,-0.334,-0.07,-1.93,0.41,0.34,-0.05,-0.35
2022-04-27 12:13:21.9240,0.007,1.134,-0.336,-0.08,-1.8,0.39,0.33,-0.04,-0.33
2022-04-27 12:13:21.9330,0.004,1.13,-0.341,-0.06,-1.76,0.39,0.33,-0.02,-0.31
2022-04-27 12:13:21.9440,0.001,1.12,-0.346,-0.06,-1.72,0.41,0.35,0.01,-0.29
2022-04-27 12:13:21.9540,0.001,1.108,-0.352,-0.07,-1.61,0.42,0.38,0.03,-0.26
2022-04-27 12:13:21.9640,-0.002,1.106,-0.357,-0.09,-1.53,0.45,0.39,0.05,-0.24
2022-04-27 12:13:21.9740,-0.005,1.103,-0.36,-0.07,-1.53,0.46,0.4,0.08,-0.21
2022-04-27 12:13:21.9840,-0.004,1.097,-0.361,-0.07,-1.5,0.45,0.4,0.11,-0.18
2022-04-27 12:13:21.9940,-0.004,1.088,-0.361,-0.09,-1.45,0.42,0.39,0.12,-0.15
2022-04-27 12:13:22.0040,-0.006,1.083,-0.36,-0.09,-1.38,0.38,0.37,0.12,-0.13
2022-04-27 12:13:22.0140,-0.009,1.082,-0.362,-0.08,-1.35,0.34,0.34,0.12,-0.1
2022-04-27 12:13:22.0230,-0.008,1.076,-0.361,-0.06,-1.35,0.33,0.3,0.12,-0.09
2022-04-27 12:13:22.0330,-0.009,1.065,-0.356,-0.08,-1.28,0.28,0.24,0.1,-0.07
2022-04-27 12:13:22.0430,-0.01,1.055,-0.352,-0.06,-1.18,0.21,0.19,0.07,-0.06
2022-04-27 12:13:22.0530,-0.011,1.047,-0.349,-0.06,-1.09,0.16,0.14,0.03,-0.05
2022-04-27 12:13:22.0630,-0.01,1.038,-0.343,-0.05,-1.01,0.11,0.12,0.02,-0.04
2022-04-27 12:13:22.0740,-0.007,1.034,-0.34,-0.07,-0.94,0.04,0.12,0.02,-0.01
2022-04-27 12:13:22.0830,-0.007,1.031,-0.339,-0.09,-0.91,0.01,0.12,0.03,0.0
2022-04-27 12:13:22.0930,-0.007,1.027,-0.334,-0.08,-0.89,-0.02,0.12,0.05,0.03
2022-04-27 12:13:22.1030,-0.004,1.021,-0.333,-0.09,-0.84,-0.07,0.12,0.09,0.05
2022-04-27 12:13:22.1130,-0.005,1.022,-0.333,-0.11,-0.8,-0.1,0.12,0.12,0.07
2022-04-27 12:13:22.1220,-0.005,1.023,-0.336,-0.09,-0.82,-0.1,0.12,0.15,0.09
2022-04-27 12:13:22.1320,-0.005,1.023,-0.341,-0.07,-0.83,-0.07,0.12,0.15,0.1
2022-04-27 12:13:22.1420,-0.004,1.021,-0.348,-0.05,-0.84,-0.02,0.11,0.15,0.11
2022-04-27 12:13:22.1530,-0.001,1.022,-0.351,-0.06,-0.82,0.03,0.09,0.14,0.12
2022-04-27 12:13:22.1620,0.002,1.023,-0.353,-0.07,-0.83,0.04,0.08,0.12,0.13
2022-04-27 12:13:22.1720,0.003,1.023,-0.357,-0.08,-0.84,0.06,0.07,0.1,0.14
2022-04-27 12:13:22.1820,0.006,1.018,-0.364,-0.08,-0.83,0.11,0.06,0.06,0.16
2022-04-27 12:13:22.1930,0.008,1.01,-0.37,-0.09,-0.78,0.17,0.06,0.01,0.17
2022-04-27 12:13:22.2020,0.008,1.003,-0.377,-0.09,-0.69,0.23,0.07,-0.03,0.17
2022-04-27 12:13:22.2120,0.008,0.999,-0.382,-0.07,-0.65,0.28,0.09,-0.07,0.17
2022-04-27 12:13:22.2230,0.009,0.996,-0.386,-0.06,-0.61,0.32,0.12,-0.1,0.17
2022-04-27 12:13:22.2310,0.01,0.992,-0.393,-0.06,-0.58,0.35,0.16,-0.13,0.17
2022-04-27 12:13:22.2420,0.01,0.99,-0.398,-0.05,-0.55,0.4,0.2,-0.16,0.16
2022-04-27 12:13:22.2520,0.011,0.992,-0.405,-0.05,-0.55,0.44,0.25,-0.17,0.16
2022-04-27 12:13:22.2620,0.01,0.995,-0.409,-0.05,-0.58,0.48,0.29,-0.17,0.16
2022-04-27 12:13:22.2730,0.013,0.993,-0.411,-0.04,-0.62,0.48,0.33,-0.17,0.16
2022-04-27 12:13:22.2820,0.014,0.989,-0.413,-0.05,-0.59,0.48,0.36,-0.16,0.16
2022-04-27 12:13:22.2920,0.016,0.989,-0.415,-0.05,-0.58,0.46,0.37,-0.14,0.16
2022-04-27 12:13:22.3020,0.016,0.987,-0.417,-0.06,-0.59,0.45,0.39,-0.13,0.16
2022-04-27 12:13:22.3120,0.018,0.986,-0.422,-0.06,-0.59,0.44,0.4,-0.12,0.16
2022-04-27 12:13:22.3220,0.02,0.985,-0.427,-0.06,-0.59,0.45,0.4,-0.11,0.17
2022-04-27 12:13:22.3310,0.02,0.983,-0.43,-0.07,-0.59,0.46,0.4,-0.09,0.17
2022-04-27 12:13:22.3410,0.02,0.982,-0.433,-0.06,-0.59,0.45,0.39,-0.09,0.17
2022-04-27 12:13:22.3510,0.021,0.975,-0.437,-0.05,-0.58,0.45,0.38,-0.1,0.16
2022-04-27 12:13:22.3610,0.02,0.968,-0.443,-0.04,-0.53,0.46,0.38,-0.12,0.15
2022-04-27 12:13:22.3720,0.022,0.961,-0.447,-0.03,-0.48,0.49,0.37,-0.15,0.14
2022-04-27 12:13:22.3810,0.022,0.955,-0.451,-0.04,-0.42,0.49,0.37,-0.17,0.13
2022-04-27 12:13:22.3910,0.022,0.95,-0.453,-0.04,-0.37,0.49,0.38,-0.18,0.12
2022-04-27 12:13:22.4020,0.023,0.95,-0.454,-0.03,-0.36,0.47,0.38,-0.2,0.11
2022-04-27 12:13:22.4110,0.024,0.949,-0.453,-0.04,-0.37,0.44,0.39,-0.21,0.1
2022-04-27 12:13:22.4210,0.024,0.95,-0.454,-0.05,-0.38,0.41,0.4,-0.19,0.1
2022-04-27 12:13:22.4300,0.024,0.948,-0.452,-0.05,-0.4,0.37,0.4,-0.17,0.1
2022-04-27 12:13:22.4410,0.026,0.947,-0.449,-0.05,-0.39,0.31,0.39,-0.14,0.1
2022-04-27 12:13:22.4510,0.026,0.943,-0.448,-0.06,-0.4,0.25,0.38,-0.11,0.1
2022-04-27 12:13:22.4610,0.025,0.939,-0.448,-0.06,-0.37,0.22,0.35,-0.08,0.1
2022-04-27 12:13:22.4710,0.026,0.936,-0.449,-0.04,-0.34,0.18,0.33,-0.05,0.11
2022-04-27 12:13:22.4800,0.026,0.936,-0.451,-0.04,-0.34,0.17,0.3,-0.03,0.1
2022-04-27 12:13:22.4910,0.026,0.934,-0.45,-0.03,-0.35,0.16,0.28,-0.01,0.1
2022-04-27 12:13:22.5000,0.026,0.933,-0.454,-0.02,-0.34,0.14,0.26,-0.0,0.1
2022-04-27 12:13:22.5100,0.027,0.933,-0.458,-0.02,-0.35,0.15,0.24,0.0,0.09
2022-04-27 12:13:22.5200,0.028,0.93,-0.459,-0.02,-0.35,0.17,0.22,-0.01,0.08
2022-04-27 12:13:22.5300,0.029,0.929,-0.462,-0.02,-0.33,0.16,0.2,-0.03,0.08
2022-04-27 12:13:22.5400,0.029,0.929,-0.465,-0.02,-0.33,0.18,0.18,-0.04,0.07
2022-04-27 12:13:22.5500,0.03,0.926,-0.467,-0.02,-0.34,0.18,0.17,-0.06,0.07
2022-04-27 12:13:22.5610,0.031,0.922,-0.468,-0.03,-0.31,0.19,0.17,-0.08,0.06
2022-04-27 12:13:22.5700,0.03,0.918,-0.471,-0.04,-0.28,0.19,0.16,-0.09,0.06
2022-04-27 12:13:22.5800,0.03,0.917,-0.472,-0.02,-0.25,0.2,0.17,-0.11,0.05
2022-04-27 12:13:22.5900,0.03,0.917,-0.474,-0.02,-0.26,0.19,0.17,-0.11,0.05
2022-04-27 12:13:22.6000,0.03,0.915,-0.475,-0.02,-0.26,0.2,0.17,-0.12,0.04
2022-04-27 12:13:22.6110,0.03,0.914,-0.474,-0.02,-0.24,0.19,0.17,-0.12,0.04
2022-04-27 12:13:22.6200,0.029,0.915,-0.476,-0.02,-0.25,0.17,0.17,-0.12,0.04
2022-04-27 12:13:22.6290,0.029,0.913,-0.476,-0.02,-0.26,0.18,0.17,-0.13,0.03
2022-04-27 12:13:22.6400,0.03,0.911,-0.474,-0.02,-0.25,0.15,0.17,-0.13,0.02
2022-04-27 12:13:22.6500,0.03,0.909,-0.475,-0.04,-0.23,0.13,0.16,-0.12,0.02
2022-04-27 12:13:22.6600,0.028,0.91,-0.475,-0.03,-0.23,0.12,0.16,-0.11,0.01
2022-04-27 12:13:22.6690,0.029,0.909,-0.476,-0.03,-0.24,0.11,0.15,-0.1,0.01
2022-04-27 12:13:22.6800,0.028,0.908,-0.478,-0.03,-0.24,0.12,0.15,-0.09,0.0
2022-04-27 12:13:22.6890,0.027,0.908,-0.481,-0.02,-0.24,0.12,0.15,-0.08,-0.0
2022-04-27 12:13:22.6990,0.027,0.908,-0.485,-0.03,-0.24,0.14,0.16,-0.08,-0.01
2022-04-27 12:13:22.7100,0.027,0.911,-0.491,-0.03,-0.26,0.17,0.16,-0.08,-0.01
2022-04-27 12:13:22.7190,0.028,0.916,-0.501,-0.04,-0.3,0.22,0.21,-0.08,0.01
2022-04-27 12:13:22.7290,0.281,1.668,-0.608,-0.05,-0.43,0.3,1.54,0.24,0.61
2022-04-27 12:13:22.7390,0.231,5.286,-1.3,-3.27,-15.73,2.39,1.89,0.44,0.68
2022-04-27 12:13:22.7490,-0.224,3.768,-0.953,-0.43,-46.67,8.25,1.89,0.44,0.68
2022-04-27 12:13:22.7590,0.022,0.868,-0.334,2.46,-18.7,2.57,1.05,0.3,0.42
2022-04-27 12:13:22.7690,0.036,0.703,-0.337,-0.08,1.6,-2.57,1.26,0.38,0.41
2022-04-27 12:13:22.7790,0.03,0.722,-0.449,0.32,1.05,-1.42,1.26,0.38,0.41
2022-04-27 12:13:22.7890,0.036,0.677,-0.436,0.29,1.27,-1.05,1.2,0.26,0.3
2022-04-27 12:13:22.7990,0.041,0.671,-0.466,0.28,1.5,-1.1,0.85,0.21,0.27
2022-04-27 12:13:22.8090,0.046,0.676,-0.449,0.27,1.5,-0.97,0.55,0.25,0.23
2022-04-27 12:13:22.8160,0.05,0.699,-0.462,0.25,1.37,-1.17,0.41,0.26,0.2
2022-04-27 12:13:22.8280,0.054,0.721,-0.502,0.25,1.1,-0.97,0.36,0.24,0.17
2022-04-27 12:13:22.8380,0.057,0.728,-0.539,0.23,0.9,-0.59,0.34,0.18,0.14
2022-04-27 12:13:22.8480,0.06,0.736,-0.554,0.22,0.83,-0.29,0.3,0.15,0.12
2022-04-27 12:13:22.8580,0.063,0.744,-0.55,0.21,0.73,-0.22,0.24,0.14,0.1
2022-04-27 12:13:22.8680,0.064,0.751,-0.546,0.2,0.63,-0.31,0.2,0.13,0.08
2022-04-27 12:13:22.8790,0.065,0.751,-0.553,0.21,0.57,-0.32,0.17,0.11,0.06
2022-04-27 12:13:22.8890,0.066,0.746,-0.562,0.21,0.58,-0.26,0.17,0.09,0.03
2022-04-27 12:13:22.8990,0.067,0.743,-0.571,0.21,0.61,-0.18,0.17,0.08,0.0
2022-04-27 12:13:22.9080,0.067,0.738,-0.575,0.21,0.64,-0.12,0.18,0.07,-0.02
2022-04-27 12:13:22.9190,0.067,0.734,-0.575,0.21,0.67,-0.1,0.18,0.06,-0.04
2022-04-27 12:13:22.9280,0.067,0.73,-0.573,0.21,0.71,-0.11,0.17,0.04,-0.06
2022-04-27 12:13:22.9380,0.067,0.729,-0.574,0.21,0.73,-0.14,0.16,0.04,-0.09
2022-04-27 12:13:22.9480,0.067,0.73,-0.577,0.2,0.72,-0.15,0.15,0.03,-0.11
2022-04-27 12:13:22.9580,0.066,0.731,-0.579,0.19,0.7,-0.12,0.14,0.02,-0.13
2022-04-27 12:13:22.9680,0.067,0.733,-0.581,0.19,0.69,-0.11,0.12,0.01,-0.15
2022-04-27 12:13:22.9780,0.067,0.735,-0.581,0.17,0.67,-0.11,0.1,0.01,-0.17
2022-04-27 12:13:22.9880,0.066,0.738,-0.58,0.17,0.64,-0.12,0.07,0.01,-0.19
2022-04-27 12:13:22.9980,0.065,0.738,-0.581,0.15,0.62,-0.13,0.04,0.01,-0.21
2022-04-27 12:13:23.0070,0.063,0.738,-0.584,0.15,0.62,-0.12,0.01,0.0,-0.23
2022-04-27 12:13:23.0180,0.063,0.739,-0.589,0.15,0.62,-0.08,-0.01,-0.01,-0.25
2022-04-27 12:13:23.0270,0.062,0.74,-0.594,0.13,0.61,-0.03,-0.03,-0.02,-0.27
2022-04-27 12:13:23.0370,0.055,0.761,-0.611,0.11,0.6,0.03,0.09,-0.24,-0.42
2022-04-27 12:13:23.0470,-0.037,1.231,-0.806,0.28,-0.16,0.42,0.35,-0.67,-0.73
2022-04-27 12:13:23.0570,0.05,1.373,-0.819,0.95,-5.43,2.45,0.28,-0.8,-0.85
2022-04-27 12:13:23.0670,0.122,1.009,-0.65,-0.39,-4.84,1.72,0.13,-0.75,-0.85
2022-04-27 12:13:23.0780,0.066,0.783,-0.566,-0.74,-1.32,0.17,0.15,-0.62,-0.69
2022-04-27 12:13:23.0870,0.251,0.863,-0.594,-0.51,0.28,-0.4,0.31,-0.44,-0.26
2022-04-27 12:13:23.0980,0.308,0.93,-0.636,-2.76,-1.07,0.06,0.24,-0.41,0.03
2022-04-27 12:13:23.1080,0.092,0.822,-0.594,-2.38,-1.12,0.23,0.11,-0.4,0.06
2022-04-27 12:13:23.1160,0.007,0.725,-0.555,-0.29,0.02,-0.26,0.05,-0.31,0.06
2022-04-27 12:13:23.1260,0.016,0.722,-0.55,0.09,0.75,-0.57,0.02,-0.24,0.06
2022-04-27 12:13:23.1360,0.018,0.728,-0.571,0.01,0.67,-0.53,-0.03,-0.22,0.09
2022-04-27 12:13:23.1460,0.047,0.781,-0.594,-0.05,0.58,-0.3,-0.04,-0.16,0.17
2022-04-27 12:13:23.1570,0.046,0.828,-0.601,-0.35,-0.05,-0.1,-0.05,-0.11,0.23
2022-04-27 12:13:23.1660,0.02,0.809,-0.596,-0.2,-0.33,-0.07,-0.07,-0.06,0.26
2022-04-27 12:13:23.1760,0.016,0.782,-0.589,0.04,-0.06,-0.12,-0.08,-0.02,0.28
2022-04-27 12:13:23.1870,0.019,0.774,-0.59,0.06,0.16,-0.17,-0.09,0.03,0.3
2022-04-27 12:13:23.1960,0.022,0.777,-0.594,0.06,0.21,-0.14,-0.09,0.06,0.32
2022-04-27 12:13:23.2060,0.026,0.785,-0.598,0.05,0.17,-0.1,-0.09,0.09,0.34
2022-04-27 12:13:23.2170,0.025,0.795,-0.597,0.06,0.09,-0.05,-0.09,0.11,0.34
2022-04-27 12:13:23.2250,-0.015,0.882,-0.629,0.1,-0.03,-0.05,-0.03,-0.01,0.19
2022-04-27 12:13:23.2350,-0.07,1.006,-0.665,0.75,-1.33,0.44,-0.07,-0.08,0.07
2022-04-27 12:13:23.2460,0.016,0.837,-0.6,0.88,-1.8,0.5,-0.12,-0.07,0.02
2022-04-27 12:13:23.2570,0.027,0.757,-0.58,0.08,-0.01,-0.13,-0.15,-0.1,-0.01
2022-04-27 12:13:23.2650,0.024,0.776,-0.596,0.1,0.4,-0.16,-0.15,-0.14,-0.02
2022-04-27 12:13:23.2760,0.078,0.833,-0.607,0.05,0.15,0.01,-0.14,-0.12,0.06
2022-04-27 12:13:23.2860,0.095,0.861,-0.6,-0.6,-0.48,0.09,-0.2,-0.1,0.08
2022-04-27 12:13:23.2960,0.029,0.804,-0.586,-0.43,-0.46,0.0,-0.23,-0.1,0.08
2022-04-27 12:13:23.3060,0.034,0.81,-0.588,0.08,0.06,-0.09,-0.23,-0.08,0.07
2022-04-27 12:13:23.3160,0.041,0.821,-0.592,-0.02,-0.11,-0.02,-0.25,-0.07,0.05
2022-04-27 12:13:23.3260,0.035,0.824,-0.594,-0.06,-0.14,0.02,-0.26,-0.06,0.04
2022-04-27 12:13:23.3360,0.039,0.827,-0.595,0.0,-0.17,0.07,-0.27,-0.05,0.03
2022-04-27 12:13:23.3460,0.042,0.82,-0.592,-0.07,-0.15,0.09,-0.27,-0.03,0.02
2022-04-27 12:13:23.3560,0.038,0.817,-0.588,-0.07,-0.07,0.08,-0.28,-0.01,0.01
2022-04-27 12:13:23.3600,0.037,0.818,-0.588,-0.03,-0.04,0.07,-0.28,-0.0,0.01
2022-04-27 12:13:23.3750,0.037,0.818,-0.589,-0.02,-0.03,0.09,-0.28,0.01,0.0
2022-04-27 12:13:23.3850,0.036,0.821,-0.589,-0.02,-0.02,0.12,-0.28,0.02,-0.0
2022-04-27 12:13:23.3960,0.033,0.822,-0.587,-0.01,-0.04,0.14,-0.29,0.02,0.0
2022-04-27 12:13:23.4050,0.032,0.822,-0.585,0.02,-0.02,0.15,-0.29,0.02,0.0
2022-04-27 12:13:23.4140,0.033,0.825,-0.584,0.03,-0.02,0.15,-0.29,0.02,0.0
2022-04-27 12:13:23.4250,0.034,0.828,-0.581,0.02,-0.03,0.16,-0.3,0.01,0.0
2022-04-27 12:13:23.4350,0.035,0.83,-0.577,0.01,-0.04,0.15,-0.3,0.0,0.0
2022-04-27 12:13:23.4450,0.034,0.831,-0.575,0.0,-0.04,0.15,-0.31,-0.0,0.0
2022-04-27 12:13:23.4550,0.034,0.832,-0.572,0.02,-0.03,0.14,-0.32,0.0,0.0
2022-04-27 12:13:23.4650,0.034,0.834,-0.569,0.01,-0.03,0.14,-0.32,-0.0,0.0
2022-04-27 12:13:23.4750,0.035,0.837,-0.566,0.01,-0.03,0.15,-0.32,-0.0,0.0
2022-04-27 12:13:23.4840,0.035,0.837,-0.563,0.01,-0.03,0.14,-0.32,0.0,0.0
2022-04-27 12:13:23.4950,0.035,0.841,-0.559,0.01,-0.02,0.14,-0.32,0.0,0.0
2022-04-27 12:13:23.5050,0.035,0.841,-0.555,0.01,-0.05,0.12,-0.33,0.01,0.0
2022-04-27 12:13:23.5150,0.036,0.843,-0.554,0.0,-0.02,0.12,-0.33,0.01,0.0
2022-04-27 12:13:23.5240,0.034,0.844,-0.551,0.01,-0.02,0.13,-0.33,0.0,0.0
2022-04-27 12:13:23.5340,0.035,0.846,-0.547,0.02,-0.02,0.12,-0.33,0.01,0.0
2022-04-27 12:13:23.5450,0.035,0.848,-0.544,0.01,-0.03,0.11,-0.34,0.0,0.01
2022-04-27 12:13:23.5540,0.035,0.85,-0.54,0.01,-0.03,0.11,-0.33,0.0,0.0
2022-04-27 12:13:23.5640,0.036,0.852,-0.539,0.01,-0.03,0.11,-0.34,0.0,0.0
2022-04-27 12:13:23.5750,0.036,0.854,-0.536,0.01,-0.02,0.12,-0.34,0.0,0.0
2022-04-27 12:13:23.5840,0.035,0.854,-0.534,0.01,-0.03,0.12,-0.34,0.01,0.0
2022-04-27 12:13:23.5950,0.036,0.857,-0.532,0.02,-0.01,0.13,-0.34,0.0,0.0
2022-04-27 12:13:23.6050,0.035,0.858,-0.529,0.01,-0.02,0.14,-0.35,0.0,0.0
2022-04-27 12:13:23.6140,0.036,0.86,-0.525,0.01,-0.02,0.13,-0.35,0.0,-0.0
2022-04-27 12:13:23.6230,0.036,0.863,-0.522,0.01,-0.02,0.13,-0.35,0.0,-0.0
2022-04-27 12:13:23.6340,0.036,0.863,-0.519,0.01,-0.03,0.13,-0.35,0.01,0.0
2022-04-27 12:13:23.6440,0.035,0.866,-0.514,0.02,-0.02,0.13,-0.35,0.01,0.0
2022-04-27 12:13:23.6540,0.037,0.868,-0.512,0.01,-0.02,0.11,-0.36,0.0,0.0
2022-04-27 12:13:23.6640,0.036,0.869,-0.51,0.0,-0.02,0.13,-0.36,0.0,0.0
2022-04-27 12:13:23.6740,0.036,0.871,-0.508,0.01,-0.02,0.14,-0.36,0.0,0.0
2022-04-27 12:13:23.6830,0.036,0.873,-0.504,0.01,-0.02,0.14,-0.36,0.01,0.0
2022-04-27 12:13:23.6940,0.036,0.874,-0.499,0.01,-0.02,0.13,-0.36,0.0,0.0
2022-04-27 12:13:23.7040,0.036,0.877,-0.495,0.01,-0.02,0.12,-0.37,0.0,0.0
2022-04-27 12:13:23.7140,0.036,0.878,-0.493,0.01,-0.03,0.11,-0.37,0.01,0.0
2022-04-27 12:13:23.7240,0.036,0.879,-0.491,0.02,-0.01,0.13,-0.37,0.01,-0.0
2022-04-27 12:13:23.7330,0.036,0.881,-0.486,0.01,-0.01,0.13,-0.37,0.0,0.0
2022-04-27 12:13:23.7430,0.036,0.882,-0.484,0.01,-0.01,0.12,-0.38,0.01,0.0
2022-04-27 12:13:23.7530,0.036,0.884,-0.481,0.01,-0.01,0.13,-0.38,0.01,0.0
2022-04-27 12:13:23.7640,0.036,0.885,-0.477,0.02,0.0,0.13,-0.38,0.0,0.0
2022-04-27 12:13:23.7730,0.036,0.889,-0.474,0.02,-0.01,0.13,-0.38,0.0,0.0
2022-04-27 12:13:23.7840,0.036,0.89,-0.471,0.02,-0.02,0.14,-0.38,0.0,-0.0
2022-04-27 12:13:23.7930,0.036,0.892,-0.467,0.02,-0.01,0.14,-0.39,0.0,0.0
2022-04-27 12:13:23.8030,0.036,0.893,-0.462,0.02,-0.02,0.13,-0.38,0.01,0.0
2022-04-27 12:13:23.8130,0.036,0.895,-0.459,0.01,-0.01,0.12,-0.39,0.01,0.0
2022-04-27 12:13:23.8220,0.036,0.898,-0.456,0.02,-0.02,0.12,-0.39,0.0,0.0
2022-04-27 12:13:23.8330,0.036,0.899,-0.453,0.02,-0.02,0.13,-0.39,0.01,0.0
2022-04-27 12:13:23.8420,0.036,0.9,-0.449,0.02,-0.01,0.13,-0.39,0.01,-0.0
2022-04-27 12:13:23.8520,0.037,0.903,-0.444,0.02,-0.01,0.12,-0.39,0.01,0.0
2022-04-27 12:13:23.8630,0.037,0.903,-0.442,0.01,-0.02,0.12,-0.39,0.0,-0.0
2022-04-27 12:13:23.8730,0.037,0.905,-0.437,0.02,0.0,0.12,-0.39,0.0,-0.0
2022-04-27 12:13:23.8830,0.037,0.908,-0.433,0.01,-0.01,0.11,-0.39,0.01,0.0
2022-04-27 12:13:23.8920,0.037,0.907,-0.43,0.01,-0.01,0.11,-0.4,0.0,0.0
2022-04-27 12:13:23.9030,0.036,0.91,-0.427,0.02,0.0,0.12,-0.4,0.01,0.0
2022-04-27 12:13:23.9130,0.038,0.911,-0.423,0.02,-0.01,0.12,-0.4,0.01,0.0
2022-04-27 12:13:23.9220,0.037,0.913,-0.421,0.01,-0.01,0.12,-0.4,0.01,0.0
2022-04-27 12:13:23.9320,0.037,0.916,-0.417,0.02,-0.01,0.13,-0.4,0.01,-0.0
2022-04-27 12:13:23.9430,0.037,0.915,-0.411,0.02,-0.02,0.12,-0.4,0.01,-0.0
2022-04-27 12:13:23.9530,0.038,0.918,-0.409,0.02,-0.01,0.11,-0.4,0.01,0.0
2022-04-27 12:13:23.9620,0.038,0.919,-0.406,0.01,-0.01,0.14,-0.41,0.0,0.0
2022-04-27 12:13:23.9710,0.038,0.922,-0.404,0.01,-0.01,0.14,-0.41,0.01,0.0
2022-04-27 12:13:23.9820,0.038,0.923,-0.398,0.01,-0.01,0.15,-0.41,0.0,-0.0
2022-04-27 12:13:23.9920,0.037,0.924,-0.392,0.02,-0.01,0.12,-0.41,0.01,-0.0
2022-04-27 12:13:24.0020,0.038,0.926,-0.389,0.02,0.0,0.11,-0.41,0.01,0.0
2022-04-27 12:13:24.0110,0.037,0.928,-0.385,0.02,0.0,0.12,-0.42,0.01,0.0
2022-04-27 12:13:24.0210,0.037,0.928,-0.381,0.02,-0.02,0.11,-0.42,0.01,0.0
2022-04-27 12:13:24.0310,0.037,0.929,-0.379,0.02,0.01,0.12,-0.42,0.01,0.0
2022-04-27 12:13:24.0410,0.038,0.932,-0.375,0.02,0.0,0.13,-0.42,0.01,0.0
2022-04-27 12:13:24.0510,0.038,0.934,-0.371,0.02,-0.02,0.13,-0.43,0.01,0.0
2022-04-27 12:13:24.0610,0.039,0.935,-0.368,0.01,-0.01,0.14,-0.43,0.01,0.0
2022-04-27 12:13:24.0720,0.038,0.936,-0.365,0.01,-0.01,0.15,-0.43,0.01,-0.0
2022-04-27 12:13:24.0820,0.038,0.937,-0.362,0.02,0.0,0.15,-0.43,0.0,-0.0
2022-04-27 12:13:24.0920,0.038,0.939,-0.357,0.01,0.0,0.16,-0.44,0.01,0.0
2022-04-27 12:13:24.1010,0.038,0.941,-0.35,0.01,0.0,0.15,-0.44,0.01,-0.0
2022-04-27 12:13:24.1110,0.037,0.942,-0.345,0.02,0.0,0.13,-0.44,0.01,-0.0
2022-04-27 12:13:24.1210,0.037,0.942,-0.342,0.02,0.0,0.12,-0.45,0.01,-0.0
2022-04-27 12:13:24.1310,0.037,0.945,-0.339,0.02,0.01,0.14,-0.45,0.01,-0.0
2022-04-27 12:13:24.1410,0.037,0.946,-0.333,0.03,-0.01,0.14,-0.46,0.01,-0.0
2022-04-27 12:13:24.1520,0.038,0.948,-0.33,0.02,0.01,0.13,-0.45,0.0,-0.0
2022-04-27 12:13:24.1610,0.038,0.949,-0.326,0.02,0.0,0.15,-0.46,0.0,-0.0
2022-04-27 12:13:24.1710,0.038,0.95,-0.322,0.02,0.0,0.14,-0.47,0.0,-0.0
2022-04-27 12:13:24.1810,0.039,0.952,-0.318,0.02,0.0,0.15,-0.47,0.0,-0.0
2022-04-27 12:13:24.1910,0.038,0.952,-0.314,0.01,0.0,0.16,-0.48,0.01,-0.0
2022-04-27 12:13:24.2010,0.038,0.954,-0.307,0.02,0.02,0.15,-0.48,0.0,-0.0
2022-04-27 12:13:24.2100,0.038,0.955,-0.303,0.02,0.01,0.14,-0.49,0.01,-0.0
2022-04-27 12:13:24.2200,0.037,0.956,-0.298,0.02,0.02,0.14,-0.49,0.01,-0.0
2022-04-27 12:13:24.2300,0.038,0.958,-0.294,0.03,0.01,0.14,-0.5,0.0,0.0
2022-04-27 12:13:24.2410,0.038,0.961,-0.289,0.02,0.01,0.15,-0.5,0.0,0.0
2022-04-27 12:13:24.2500,0.038,0.962,-0.287,0.02,-0.01,0.16,-0.5,0.0,0.0
2022-04-27 12:13:24.2600,0.037,0.962,-0.281,0.02,-0.01,0.17,-0.52,0.01,-0.0
2022-04-27 12:13:24.2710,0.038,0.964,-0.277,0.03,0.01,0.16,-0.52,0.01,-0.0
2022-04-27 12:13:24.2800,0.038,0.964,-0.272,0.02,0.01,0.17,-0.53,0.01,-0.0
2022-04-27 12:13:24.2900,0.038,0.967,-0.266,0.02,0.02,0.17,-0.54,0.0,-0.0
2022-04-27 12:13:24.3000,0.039,0.968,-0.26,0.02,0.01,0.17,-0.54,0.01,-0.0
2022-04-27 12:13:24.3080,0.039,0.968,-0.255,0.01,0.01,0.17,-0.55,0.01,-0.0
2022-04-27 12:13:24.3190,0.038,0.97,-0.251,0.01,0.01,0.17,-0.56,0.01,0.0
2022-04-27 12:13:24.3300,0.038,0.971,-0.243,0.02,0.01,0.17,-0.57,0.01,-0.0
2022-04-27 12:13:24.3400,0.037,0.973,-0.238,0.03,0.02,0.16,-0.57,0.01,-0.0
2022-04-27 12:13:24.3500,0.038,0.973,-0.233,0.03,0.01,0.17,-0.57,0.01,-0.0
2022-04-27 12:13:24.3600,0.038,0.974,-0.229,0.02,0.01,0.16,-0.58,0.01,-0.0
2022-04-27 12:13:24.3700,0.037,0.976,-0.221,0.02,0.02,0.18,-0.58,0.01,-0.0
2022-04-27 12:13:24.3800,0.038,0.977,-0.216,0.03,0.02,0.17,-0.59,0.01,-0.0
2022-04-27 12:13:24.3890,0.038,0.978,-0.212,0.02,0.02,0.17,-0.6,0.01,-0.0
2022-04-27 12:13:24.4000,0.038,0.979,-0.206,0.02,0.02,0.18,-0.61,0.01,-0.0
2022-04-27 12:13:24.4100,0.038,0.98,-0.2,0.02,0.02,0.19,-0.61,0.01,-0.0
2022-04-27 12:13:24.4180,0.038,0.981,-0.193,0.03,0.02,0.19,-0.62,0.01,-0.01
2022-04-27 12:13:24.4290,0.038,0.982,-0.186,0.02,0.03,0.18,-0.62,0.01,-0.0
2022-04-27 12:13:24.4390,0.038,0.983,-0.18,0.02,0.03,0.17,-0.63,0.01,-0.0
2022-04-27 12:13:24.4490,0.038,0.984,-0.175,0.02,0.03,0.18,-0.63,0.01,-0.0
2022-04-27 12:13:24.4590,0.038,0.985,-0.166,0.03,0.02,0.18,-0.63,0.01,-0.0
2022-04-27 12:13:24.4700,0.037,0.986,-0.16,0.02,0.03,0.16,-0.64,0.01,-0.0
2022-04-27 12:13:24.4790,0.037,0.987,-0.154,0.03,0.03,0.17,-0.64,0.01,-0.0
2022-04-27 12:13:24.4890,0.038,0.988,-0.148,0.03,0.02,0.16,-0.65,0.01,-0.0
2022-04-27 12:13:24.4990,0.037,0.988,-0.142,0.02,0.02,0.17,-0.65,0.01,-0.0
2022-04-27 12:13:24.5080,0.038,0.989,-0.135,0.03,0.03,0.17,-0.65,0.01,-0.0
2022-04-27 12:13:24.5180,0.037,0.991,-0.128,0.02,0.02,0.17,-0.65,0.01,-0.0
2022-04-27 12:13:24.5280,0.037,0.991,-0.122,0.03,0.02,0.17,-0.66,0.01,-0.0
2022-04-27 12:13:24.5390,0.037,0.991,-0.114,0.03,0.03,0.16,-0.66,0.01,-0.0
2022-04-27 12:13:24.5480,0.037,0.992,-0.108,0.03,0.03,0.16,-0.66,0.01,-0.0
2022-04-27 12:13:24.5580,0.037,0.993,-0.101,0.03,0.03,0.16,-0.66,0.01,-0.0
2022-04-27 12:13:24.5690,0.037,0.993,-0.095,0.03,0.02,0.16,-0.66,0.01,-0.0
2022-04-27 12:13:24.5780,0.038,0.994,-0.088,0.03,0.02,0.16,-0.67,0.01,-0.0
2022-04-27 12:13:24.5890,0.038,0.994,-0.081,0.02,0.02,0.16,-0.67,0.01,-0.0
2022-04-27 12:13:24.5990,0.037,0.994,-0.076,0.02,0.03,0.16,-0.67,0.01,-0.0
2022-04-27 12:13:24.6080,0.037,0.995,-0.068,0.03,0.03,0.18,-0.67,0.01,-0.0
2022-04-27 12:13:24.6180,0.037,0.995,-0.061,0.03,0.03,0.16,-0.67,0.01,-0.0
2022-04-27 12:13:24.6280,0.037,0.996,-0.055,0.03,0.02,0.17,-0.67,0.01,-0.0
2022-04-27 12:13:24.6380,0.037,0.995,-0.048,0.03,0.03,0.16,-0.67,0.01,-0.0
2022-04-27 12:13:24.6480,0.037,0.995,-0.042,0.02,0.03,0.17,-0.67,0.01,-0.01
2022-04-27 12:13:24.6580,0.037,0.996,-0.035,0.03,0.03,0.17,-0.67,0.01,-0.0
2022-04-27 12:13:24.6690,0.037,0.996,-0.028,0.03,0.02,0.17,-0.67,0.01,-0.0
2022-04-27 12:13:24.6780,0.037,0.996,-0.021,0.02,0.03,0.17,-0.68,0.01,-0.0
2022-04-27 12:13:24.6890,0.037,0.995,-0.014,0.02,0.02,0.16,-0.67,0.01,-0.0
2022-04-27 12:13:24.6980,0.036,0.995,-0.007,0.03,0.03,0.16,-0.68,0.01,-0.0
2022-04-27 12:13:24.7070,0.037,0.995,-0.0,0.03,0.04,0.16,-0.68,0.01,-0.0
2022-04-27 12:13:24.7180,0.037,0.996,0.007,0.02,0.03,0.16,-0.68,0.01,-0.01
2022-04-27 12:13:24.7270,0.037,0.995,0.013,0.02,0.02,0.16,-0.67,0.01,-0.0
2022-04-27 12:13:24.7370,0.037,0.994,0.02,0.02,0.03,0.16,-0.67,0.01,-0.0
2022-04-27 12:13:24.7470,0.037,0.995,0.027,0.03,0.04,0.16,-0.67,0.01,-0.0
2022-04-27 12:13:24.7580,0.037,0.994,0.034,0.02,0.03,0.15,-0.67,0.01,-0.01
2022-04-27 12:13:24.7670,0.036,0.993,0.04,0.03,0.03,0.15,-0.67,0.01,-0.0
2022-04-27 12:13:24.7770,0.037,0.994,0.047,0.03,0.04,0.16,-0.67,0.01,-0.0
2022-04-27 12:13:24.7880,0.037,0.993,0.053,0.02,0.03,0.15,-0.67,0.01,-0.0
2022-04-27 12:13:24.7970,0.035,0.992,0.059,0.03,0.03,0.17,-0.67,0.01,-0.0
2022-04-27 12:13:24.8070,0.037,0.992,0.068,0.04,0.03,0.16,-0.66,0.01,-0.0
2022-04-27 12:13:24.8170,0.036,0.992,0.075,0.02,0.03,0.14,-0.66,0.01,-0.0
2022-04-27 12:13:24.8270,0.036,0.991,0.081,0.03,0.03,0.14,-0.66,0.01,-0.0
2022-04-27 12:13:24.8370,0.035,0.991,0.088,0.03,0.03,0.15,-0.65,0.01,-0.0
2022-04-27 12:13:24.8470,0.036,0.99,0.095,0.04,0.02,0.14,-0.65,0.01,-0.01
2022-04-27 12:13:24.8580,0.036,0.988,0.102,0.03,0.03,0.13,-0.65,0.01,-0.0
2022-04-27 12:13:24.8670,0.036,0.988,0.109,0.03,0.04,0.13,-0.64,0.01,-0.0
2022-04-27 12:13:24.8760,0.035,0.987,0.114,0.03,0.03,0.13,-0.64,0.01,-0.0
2022-04-27 12:13:24.8870,0.035,0.986,0.119,0.04,0.03,0.14,-0.63,0.01,-0.0
2022-04-27 12:13:24.8970,0.036,0.986,0.126,0.03,0.03,0.14,-0.63,0.01,-0.0
2022-04-27 12:13:24.9070,0.035,0.985,0.132,0.02,0.02,0.15,-0.63,0.01,-0.0
2022-04-27 12:13:24.9170,0.035,0.984,0.138,0.03,0.03,0.14,-0.62,0.01,-0.0
2022-04-27 12:13:24.9260,0.035,0.983,0.144,0.03,0.02,0.15,-0.62,0.01,-0.0
2022-04-27 12:13:24.9360,0.035,0.982,0.152,0.04,0.02,0.14,-0.62,0.01,-0.01
2022-04-27 12:13:24.9460,0.036,0.98,0.157,0.03,0.04,0.13,-0.61,0.01,-0.0
2022-04-27 12:13:24.9570,0.035,0.98,0.163,0.03,0.03,0.14,-0.61,0.01,-0.0
2022-04-27 12:13:24.9660,0.035,0.979,0.169,0.03,0.03,0.14,-0.6,0.0,-0.0
2022-04-27 12:13:24.9760,0.035,0.978,0.175,0.04,0.03,0.14,-0.6,0.01,-0.0
2022-04-27 12:13:24.9860,0.034,0.976,0.181,0.03,0.03,0.14,-0.6,0.0,-0.01
2022-04-27 12:13:24.9970,0.034,0.975,0.187,0.04,0.03,0.13,-0.6,0.0,-0.0
2022-04-27 12:13:25.0030,0.034,0.974,0.192,0.04,0.03,0.14,-0.59,0.0,-0.0
2022-04-27 12:13:25.0160,0.035,0.974,0.198,0.03,0.03,0.14,-0.59,0.0,-0.0
2022-04-27 12:13:25.0250,0.034,0.971,0.204,0.03,0.02,0.14,-0.58,0.0,-0.0
2022-04-27 12:13:25.0360,0.034,0.97,0.209,0.04,0.03,0.14,-0.58,-0.0,-0.0
2022-04-27 12:13:25.0450,0.034,0.97,0.215,0.04,0.03,0.14,-0.58,0.0,-0.01
2022-04-27 12:13:25.0560,0.034,0.967,0.221,0.03,0.02,0.14,-0.57,-0.0,-0.01
2022-04-27 12:13:25.0660,0.034,0.966,0.227,0.04,0.03,0.14,-0.57,-0.01,-0.01
2022-04-27 12:13:25.0760,0.035,0.965,0.232,0.03,0.03,0.13,-0.56,-0.01,-0.01
2022-04-27 12:13:25.0860,0.034,0.964,0.237,0.03,0.02,0.13,-0.56,-0.01,-0.01
2022-04-27 12:13:25.0960,0.034,0.962,0.243,0.03,0.03,0.14,-0.56,-0.01,-0.01
2022-04-27 12:13:25.1060,0.033,0.96,0.249,0.04,0.03,0.13,-0.55,-0.01,-0.01
2022-04-27 12:13:25.1150,0.034,0.961,0.253,0.04,0.03,0.14,-0.55,-0.01,-0.01
2022-04-27 12:13:25.1250,0.034,0.958,0.259,0.04,0.01,0.14,-0.54,-0.01,-0.01
2022-04-27 12:13:25.1350,0.034,0.957,0.264,0.04,0.03,0.14,-0.54,-0.02,-0.01
2022-04-27 12:13:25.1450,0.034,0.956,0.269,0.04,0.02,0.14,-0.53,-0.02,-0.01
2022-04-27 12:13:25.1550,0.033,0.953,0.273,0.03,0.02,0.14,-0.53,-0.02,-0.01
2022-04-27 12:13:25.1660,0.033,0.952,0.279,0.04,0.03,0.15,-0.53,-0.02,-0.01
2022-04-27 12:13:25.1750,0.033,0.95,0.284,0.04,0.03,0.14,-0.53,-0.02,-0.01
2022-04-27 12:13:25.1850,0.032,0.948,0.289,0.04,0.03,0.14,-0.52,-0.03,-0.01
2022-04-27 12:13:25.1950,0.033,0.946,0.294,0.05,0.04,0.14,-0.52,-0.03,-0.01
2022-04-27 12:13:25.2050,0.033,0.946,0.299,0.03,0.03,0.14,-0.52,-0.03,-0.01
2022-04-27 12:13:25.2140,0.032,0.944,0.304,0.04,0.02,0.14,-0.51,-0.03,-0.01
2022-04-27 12:13:25.2250,0.033,0.943,0.308,0.05,0.03,0.13,-0.51,-0.03,-0.02
2022-04-27 12:13:25.2350,0.033,0.941,0.313,0.03,0.02,0.14,-0.5,-0.04,-0.02
2022-04-27 12:13:25.2440,0.033,0.939,0.318,0.04,0.02,0.14,-0.5,-0.04,-0.02
2022-04-27 12:13:25.2550,0.032,0.938,0.323,0.04,0.03,0.14,-0.49,-0.04,-0.02
2022-04-27 12:13:25.2640,0.033,0.936,0.328,0.04,0.02,0.13,-0.49,-0.04,-0.02
2022-04-27 12:13:25.2740,0.032,0.934,0.332,0.04,0.02,0.13,-0.49,-0.05,-0.02
2022-04-27 12:13:25.2850,0.032,0.932,0.336,0.05,0.02,0.14,-0.49,-0.05,-0.02
2022-04-27 12:13:25.2940,0.033,0.932,0.342,0.05,0.03,0.13,-0.48,-0.05,-0.02
2022-04-27 12:13:25.3040,0.033,0.931,0.345,0.03,0.01,0.13,-0.47,-0.05,-0.02
2022-04-27 12:13:25.3170,0.031,0.926,0.35,0.04,0.02,0.14,-0.47,-0.05,-0.02
2022-04-27 12:13:25.3230,0.031,0.926,0.356,0.05,0.04,0.13,-0.47,-0.05,-0.02
2022-04-27 12:13:25.3330,0.032,0.923,0.36,0.05,0.02,0.12,-0.47,-0.06,-0.02
2022-04-27 12:13:25.3440,0.032,0.923,0.364,0.04,0.04,0.12,-0.47,-0.06,-0.03
2022-04-27 12:13:25.3540,0.031,0.919,0.367,0.05,0.02,0.13,-0.46,-0.06,-0.03
2022-04-27 12:13:25.3640,0.031,0.918,0.373,0.05,0.04,0.14,-0.46,-0.06,-0.02
2022-04-27 12:13:25.3740,0.031,0.916,0.379,0.06,0.03,0.11,-0.46,-0.05,-0.02
2022-04-27 12:13:25.3850,0.03,0.914,0.382,0.06,0.04,0.11,-0.45,-0.05,-0.02
2022-04-27 12:13:25.3930,0.031,0.913,0.385,0.06,0.04,0.12,-0.45,-0.05,-0.02
2022-04-27 12:13:25.4040,0.031,0.908,0.389,0.05,0.04,0.12,-0.45,-0.05,-0.02
2022-04-27 12:13:25.4130,0.031,0.909,0.395,0.05,0.06,0.12,-0.45,-0.04,-0.02
2022-04-27 12:13:25.4240,0.03,0.906,0.4,0.06,0.02,0.11,-0.44,-0.04,-0.02
2022-04-27 12:13:25.4340,0.031,0.904,0.406,0.06,0.05,0.09,-0.44,-0.03,-0.02
2022-04-27 12:13:25.4430,0.03,0.903,0.41,0.05,0.04,0.08,-0.43,-0.03,-0.01
2022-04-27 12:13:25.4540,0.029,0.9,0.413,0.06,0.05,0.08,-0.43,-0.02,-0.01
2022-04-27 12:13:25.4630,0.029,0.898,0.417,0.07,0.05,0.09,-0.43,-0.02,-0.01
2022-04-27 12:13:25.4730,0.03,0.898,0.42,0.07,0.05,0.09,-0.42,-0.02,-0.01
2022-04-27 12:13:25.4770,0.03,0.895,0.422,0.06,0.03,0.09,-0.42,-0.02,-0.01
2022-04-27 12:13:25.4930,0.03,0.895,0.427,0.06,0.04,0.11,-0.41,-0.02,-0.01
2022-04-27 12:13:25.5030,0.03,0.892,0.43,0.06,0.03,0.1,-0.41,-0.02,-0.01
2022-04-27 12:13:25.5130,0.031,0.891,0.434,0.06,0.04,0.1,-0.4,-0.01,-0.01
2022-04-27 12:13:25.5230,0.03,0.888,0.436,0.05,0.04,0.11,-0.39,-0.02,-0.01
2022-04-27 12:13:25.5330,0.03,0.888,0.439,0.07,0.04,0.11,-0.39,-0.02,-0.01
2022-04-27 12:13:25.5430,0.03,0.886,0.442,0.06,0.03,0.13,-0.39,-0.02,-0.01
2022-04-27 12:13:25.5530,0.03,0.885,0.446,0.06,0.03,0.12,-0.38,-0.02,-0.01
2022-04-27 12:13:25.5620,0.031,0.882,0.449,0.06,0.03,0.12,-0.38,-0.02,-0.01
2022-04-27 12:13:25.5730,0.031,0.881,0.452,0.05,0.03,0.13,-0.37,-0.03,-0.01
2022-04-27 12:13:25.5830,0.031,0.88,0.455,0.05,0.03,0.12,-0.37,-0.03,-0.02
2022-04-27 12:13:25.5930,0.031,0.878,0.46,0.05,0.02,0.12,-0.36,-0.03,-0.02
2022-04-27 12:13:25.6000,0.031,0.875,0.461,0.05,0.03,0.12,-0.36,-0.03,-0.02
2022-04-27 12:13:25.6120,0.03,0.874,0.465,0.05,0.03,0.14,-0.36,-0.03,-0.02
2022-04-27 12:13:25.6220,0.03,0.872,0.468,0.05,0.03,0.13,-0.36,-0.04,-0.02
2022-04-27 12:13:25.6320,0.03,0.87,0.471,0.06,0.03,0.13,-0.36,-0.04,-0.02
2022-04-27 12:13:25.6420,0.031,0.868,0.475,0.05,0.03,0.13,-0.35,-0.04,-0.02
2022-04-27 12:13:25.6530,0.031,0.867,0.478,0.05,0.04,0.12,-0.35,-0.04,-0.02
2022-04-27 12:13:25.6620,0.029,0.865,0.48,0.06,0.03,0.12,-0.35,-0.04,-0.02
2022-04-27 12:13:25.6730,0.031,0.864,0.482,0.06,0.03,0.13,-0.34,-0.04,-0.02
2022-04-27 12:13:25.6820,0.03,0.862,0.487,0.05,0.03,0.13,-0.34,-0.04,-0.02
2022-04-27 12:13:25.6920,0.029,0.861,0.49,0.06,0.03,0.12,-0.34,-0.05,-0.03
2022-04-27 12:13:25.7020,0.03,0.858,0.491,0.07,0.03,0.13,-0.34,-0.05,-0.03
2022-04-27 12:13:25.7120,0.03,0.855,0.495,0.05,0.04,0.13,-0.33,-0.05,-0.03
2022-04-27 12:13:25.7220,0.03,0.855,0.498,0.06,0.04,0.13,-0.33,-0.05,-0.03
2022-04-27 12:13:25.7310,0.03,0.853,0.502,0.06,0.03,0.13,-0.33,-0.05,-0.03
2022-04-27 12:13:25.7420,0.03,0.85,0.505,0.05,0.03,0.12,-0.33,-0.05,-0.03
2022-04-27 12:13:25.7520,0.029,0.85,0.507,0.06,0.05,0.11,-0.33,-0.05,-0.03
2022-04-27 12:13:25.7620,0.029,0.847,0.509,0.06,0.03,0.12,-0.33,-0.05,-0.03
2022-04-27 12:13:25.7720,0.03,0.845,0.513,0.06,0.04,0.12,-0.32,-0.05,-0.03
2022-04-27 12:13:25.7810,0.029,0.844,0.516,0.06,0.04,0.12,-0.32,-0.05,-0.03
2022-04-27 12:13:25.7920,0.029,0.843,0.518,0.07,0.04,0.12,-0.32,-0.05,-0.03
2022-04-27 12:13:25.8020,0.029,0.841,0.521,0.06,0.03,0.12,-0.32,-0.05,-0.03
2022-04-27 12:13:25.8110,0.029,0.839,0.523,0.07,0.04,0.12,-0.32,-0.05,-0.03
2022-04-27 12:13:25.8210,0.03,0.836,0.524,0.06,0.03,0.13,-0.31,-0.05,-0.03
2022-04-27 12:13:25.8310,0.029,0.834,0.528,0.06,0.05,0.14,-0.32,-0.05,-0.03
2022-04-27 12:13:25.8410,0.028,0.832,0.532,0.07,0.05,0.12,-0.31,-0.05,-0.03
2022-04-27 12:13:25.8520,0.029,0.83,0.534,0.07,0.06,0.11,-0.31,-0.05,-0.03
2022-04-27 12:13:25.8610,0.029,0.83,0.537,0.07,0.06,0.12,-0.31,-0.05,-0.03
2022-04-27 12:13:25.8710,0.029,0.829,0.538,0.06,0.04,0.12,-0.31,-0.05,-0.03
2022-04-27 12:13:25.8810,0.029,0.827,0.541,0.06,0.04,0.13,-0.3,-0.05,-0.03
2022-04-27 12:13:25.8910,0.029,0.826,0.544,0.07,0.04,0.13,-0.31,-0.05,-0.03
2022-04-27 12:13:25.8980,0.029,0.824,0.547,0.06,0.03,0.11,-0.3,-0.05,-0.03
2022-04-27 12:13:25.9110,0.03,0.822,0.549,0.06,0.04,0.12,-0.3,-0.05,-0.03
2022-04-27 12:13:25.9200,0.028,0.82,0.552,0.06,0.04,0.12,-0.3,-0.06,-0.03
2022-04-27 12:13:25.9300,0.029,0.818,0.554,0.07,0.04,0.12,-0.3,-0.05,-0.04
2022-04-27 12:13:25.9410,0.028,0.816,0.557,0.07,0.05,0.12,-0.29,-0.05,-0.03
2022-04-27 12:13:25.9510,0.029,0.815,0.559,0.07,0.04,0.12,-0.29,-0.05,-0.04
2022-04-27 12:13:25.9600,0.027,0.813,0.561,0.07,0.04,0.12,-0.29,-0.05,-0.03
2022-04-27 12:13:25.9710,0.027,0.812,0.564,0.08,0.04,0.12,-0.29,-0.05,-0.04
2022-04-27 12:13:25.9810,0.028,0.81,0.567,0.08,0.04,0.11,-0.29,-0.05,-0.03
2022-04-27 12:13:25.9910,0.028,0.808,0.569,0.07,0.05,0.11,-0.28,-0.05,-0.04
2022-04-27 12:13:26.0010,0.028,0.805,0.572,0.07,0.05,0.11,-0.28,-0.05,-0.03
2022-04-27 12:13:26.0100,0.029,0.804,0.574,0.07,0.05,0.11,-0.28,-0.05,-0.03
2022-04-27 12:13:26.0210,0.028,0.803,0.576,0.07,0.04,0.12,-0.28,-0.05,-0.03
2022-04-27 12:13:26.0310,0.028,0.8,0.579,0.08,0.05,0.11,-0.28,-0.05,-0.03
2022-04-27 12:13:26.0400,0.027,0.799,0.581,0.07,0.06,0.11,-0.28,-0.05,-0.03
2022-04-27 12:13:26.0500,0.027,0.797,0.584,0.08,0.05,0.11,-0.28,-0.04,-0.03
2022-04-27 12:13:26.0600,0.027,0.794,0.586,0.08,0.06,0.1,-0.28,-0.04,-0.03
2022-04-27 12:13:26.0700,0.026,0.793,0.588,0.08,0.07,0.1,-0.28,-0.04,-0.03
2022-04-27 12:13:26.0800,0.027,0.792,0.59,0.09,0.06,0.11,-0.27,-0.04,-0.03
2022-04-27 12:13:26.0900,0.027,0.789,0.591,0.08,0.05,0.11,-0.27,-0.04,-0.02
2022-04-27 12:13:26.0990,0.027,0.787,0.596,0.08,0.07,0.11,-0.27,-0.03,-0.02
2022-04-27 12:13:26.1090,0.026,0.786,0.598,0.08,0.07,0.09,-0.27,-0.03,-0.02
2022-04-27 12:13:26.1190,0.026,0.784,0.6,0.09,0.07,0.09,-0.27,-0.02,-0.01
2022-04-27 12:13:26.1290,0.026,0.782,0.602,0.09,0.07,0.09,-0.26,-0.01,-0.01
2022-04-27 12:13:26.1390,0.025,0.781,0.604,0.1,0.07,0.09,-0.26,-0.01,-0.01
2022-04-27 12:13:26.1500,0.026,0.777,0.606,0.1,0.06,0.1,-0.26,-0.01,-0.01
2022-04-27 12:13:26.1600,0.025,0.778,0.609,0.1,0.09,0.1,-0.26,-0.01,-0.0
2022-04-27 12:13:26.1700,0.026,0.776,0.61,0.1,0.06,0.09,-0.26,-0.0,-0.0
2022-04-27 12:13:26.1790,0.026,0.776,0.612,0.1,0.06,0.09,-0.26,0.0,0.0
2022-04-27 12:13:26.1900,0.027,0.775,0.613,0.09,0.05,0.1,-0.26,0.01,0.0
2022-04-27 12:13:26.2000,0.027,0.773,0.616,0.08,0.05,0.1,-0.26,0.01,0.0
2022-04-27 12:13:26.2080,0.027,0.771,0.616,0.08,0.05,0.1,-0.26,0.01,0.0
2022-04-27 12:13:26.2190,0.028,0.77,0.616,0.07,0.04,0.12,-0.25,0.0,0.0
2022-04-27 12:13:26.2290,0.027,0.768,0.619,0.08,0.04,0.14,-0.25,-0.0,-0.0
2022-04-27 12:13:26.2390,0.027,0.766,0.62,0.08,0.05,0.13,-0.25,-0.0,0.0
2022-04-27 12:13:26.2490,0.027,0.764,0.622,0.08,0.05,0.14,-0.25,-0.01,0.0
2022-04-27 12:13:26.2590,0.027,0.762,0.625,0.08,0.06,0.13,-0.25,-0.0,-0.0
2022-04-27 12:13:26.2690,0.027,0.761,0.627,0.08,0.06,0.13,-0.25,-0.0,-0.0
2022-04-27 12:13:26.2790,0.026,0.759,0.63,0.08,0.06,0.12,-0.25,-0.0,-0.0
2022-04-27 12:13:26.2890,0.026,0.758,0.632,0.09,0.05,0.12,-0.26,-0.0,0.0
2022-04-27 12:13:26.3000,0.026,0.758,0.634,0.09,0.04,0.12,-0.26,0.0,0.0
2022-04-27 12:13:26.3070,0.027,0.754,0.635,0.09,0.04,0.12,-0.26,0.0,0.0
2022-04-27 12:13:26.3180,0.026,0.753,0.637,0.08,0.06,0.13,-0.26,0.0,-0.0
2022-04-27 12:13:26.3280,0.027,0.751,0.638,0.08,0.05,0.12,-0.26,0.0,-0.0
2022-04-27 12:13:26.3380,0.026,0.75,0.64,0.08,0.05,0.13,-0.26,0.0,0.0
2022-04-27 12:13:26.3490,0.026,0.747,0.643,0.09,0.06,0.13,-0.27,0.01,0.0
2022-04-27 12:13:26.3590,0.026,0.746,0.645,0.08,0.06,0.12,-0.27,0.01,0.0
2022-04-27 12:13:26.3680,0.026,0.744,0.646,0.09,0.06,0.12,-0.27,0.01,0.0
2022-04-27 12:13:26.3780,0.026,0.742,0.649,0.08,0.06,0.13,-0.27,0.01,0.0
2022-04-27 12:13:26.3880,0.025,0.74,0.65,0.08,0.06,0.12,-0.27,0.01,0.0
2022-04-27 12:13:26.3990,0.024,0.741,0.651,0.09,0.06,0.13,-0.27,0.02,0.01
2022-04-27 12:13:26.4070,0.025,0.738,0.653,0.1,0.04,0.14,-0.27,0.01,0.01
2022-04-27 12:13:26.4170,0.023,0.737,0.655,0.1,0.04,0.13,-0.26,0.02,0.01
2022-04-27 12:13:26.4270,0.023,0.734,0.657,0.11,0.04,0.13,-0.26,0.02,0.02
2022-04-27 12:13:26.4370,0.022,0.734,0.661,0.11,0.05,0.13,-0.26,0.03,0.03
2022-04-27 12:13:26.4480,0.021,0.731,0.666,0.12,0.04,0.11,-0.26,0.03,0.03
2022-04-27 12:13:26.4580,0.021,0.729,0.67,0.13,0.05,0.08,-0.25,0.05,0.04
2022-04-27 12:13:26.4670,0.021,0.728,0.671,0.13,0.05,0.07,-0.24,0.06,0.05
2022-04-27 12:13:26.4780,0.022,0.725,0.673,0.12,0.05,0.07,-0.23,0.06,0.05
2022-04-27 12:13:26.4880,0.024,0.724,0.674,0.12,0.06,0.08,-0.22,0.05,0.05
2022-04-27 12:13:26.4980,0.027,0.721,0.674,0.09,0.06,0.08,-0.2,0.04,0.04
2022-04-27 12:13:26.5060,0.028,0.72,0.676,0.06,0.07,0.09,-0.19,0.02,0.03
2022-04-27 12:13:26.5170,0.032,0.716,0.678,0.05,0.08,0.08,-0.18,0.0,0.02
2022-04-27 12:13:26.5270,0.035,0.717,0.679,0.01,0.09,0.08,-0.16,-0.01,0.01
2022-04-27 12:13:26.5370,0.033,0.714,0.679,-0.01,0.08,0.08,-0.15,-0.03,-0.01
2022-04-27 12:13:26.5480,0.03,0.718,0.679,0.02,0.09,0.09,-0.14,-0.03,-0.02
2022-04-27 12:13:26.5570,0.024,0.721,0.681,0.05,0.03,0.1,-0.13,-0.04,-0.02
2022-04-27 12:13:26.5850,0.025,0.714,0.685,0.09,0.09,0.05,-0.13,-0.03,-0.02
2022-04-27 12:13:26.5850,0.026,0.711,0.686,0.09,0.09,0.05,-0.12,-0.03,-0.02
2022-04-27 12:13:26.5890,0.025,0.713,0.688,0.09,0.09,0.05,-0.11,-0.03,-0.02
2022-04-27 12:13:26.6100,0.025,0.711,0.688,0.08,0.07,0.06,-0.11,-0.03,-0.02
2022-04-27 12:13:26.6120,0.027,0.712,0.688,0.08,0.07,0.06,-0.1,-0.03,-0.02
2022-04-27 12:13:26.6190,0.026,0.709,0.686,0.08,0.06,0.06,-0.1,-0.03,-0.02
2022-04-27 12:13:26.6290,0.027,0.711,0.683,0.08,0.08,0.09,-0.09,-0.03,-0.03
2022-04-27 12:13:26.6370,0.029,0.713,0.683,0.06,0.05,0.13,-0.08,-0.04,-0.04
2022-04-27 12:13:26.6460,0.029,0.713,0.684,0.04,0.03,0.12,-0.08,-0.05,-0.05
2022-04-27 12:13:26.6560,0.031,0.714,0.685,0.05,0.03,0.11,-0.07,-0.06,-0.06
2022-04-27 12:13:26.6670,0.031,0.713,0.683,0.03,0.02,0.11,-0.06,-0.08,-0.07
2022-04-27 12:13:26.6760,0.031,0.715,0.683,0.03,0.02,0.14,-0.05,-0.09,-0.08
2022-04-27 12:13:26.6880,0.033,0.714,0.683,0.02,0.0,0.14,-0.04,-0.1,-0.1
2022-04-27 12:13:26.6950,0.032,0.715,0.684,0.01,0.01,0.14,-0.03,-0.11,-0.11
2022-04-27 12:13:26.7060,0.032,0.715,0.684,0.02,0.0,0.14,-0.03,-0.12,-0.13
2022-04-27 12:13:26.7150,0.033,0.715,0.684,0.01,-0.01,0.13,-0.02,-0.14,-0.14
2022-04-27 12:13:26.7250,0.031,0.713,0.684,0.01,0.0,0.14,-0.01,-0.16,-0.16
2022-04-27 12:13:26.7360,0.032,0.714,0.685,0.02,0.02,0.14,-0.01,-0.19,-0.17
2022-04-27 12:13:26.7460,0.032,0.714,0.687,0.02,0.0,0.13,0.0,-0.2,-0.19
2022-04-27 12:13:26.7560,0.033,0.714,0.689,0.01,0.0,0.1,0.01,-0.22,-0.21
2022-04-27 12:13:26.7660,0.033,0.714,0.686,0.01,0.01,0.09,0.03,-0.22,-0.22
2022-04-27 12:13:26.7770,0.033,0.715,0.684,0.0,0.0,0.12,0.05,-0.23,-0.24
2022-04-27 12:13:26.7860,0.033,0.716,0.684,0.0,-0.01,0.13,0.06,-0.24,-0.25
2022-04-27 12:13:26.7970,0.033,0.717,0.684,0.0,0.0,0.12,0.08,-0.25,-0.27
2022-04-27 12:13:26.8050,0.033,0.717,0.682,-0.01,-0.01,0.11,0.09,-0.27,-0.29
2022-04-27 12:13:26.8150,0.034,0.718,0.683,-0.01,0.02,0.13,0.1,-0.28,-0.31
2022-04-27 12:13:26.8250,0.034,0.721,0.684,-0.02,-0.01,0.11,0.11,-0.3,-0.33
2022-04-27 12:13:26.8360,0.033,0.719,0.681,-0.02,-0.02,0.09,0.11,-0.32,-0.34
2022-04-27 12:13:26.8460,0.031,0.716,0.678,-0.01,0.01,0.12,0.13,-0.36,-0.35
2022-04-27 12:13:26.8560,0.028,0.714,0.677,0.01,0.05,0.13,0.15,-0.39,-0.36
2022-04-27 12:13:26.8660,0.026,0.713,0.675,0.04,0.08,0.14,0.17,-0.42,-0.36
2022-04-27 12:13:26.8760,0.025,0.714,0.679,0.06,0.1,0.13,0.2,-0.44,-0.36
2022-04-27 12:13:26.8850,0.026,0.717,0.683,0.07,0.1,0.07,0.23,-0.44,-0.37
2022-04-27 12:13:26.8960,0.029,0.719,0.691,0.06,0.09,0.0,0.24,-0.42,-0.38
2022-04-27 12:13:26.9040,0.029,0.722,0.7,0.03,0.08,-0.1,0.24,-0.39,-0.38
2022-04-27 12:13:26.9140,0.026,0.718,0.695,0.04,0.08,-0.18,0.24,-0.38,-0.38
2022-04-27 12:13:26.9250,0.024,0.72,0.681,0.06,0.14,-0.12,0.26,-0.38,-0.38
2022-04-27 12:13:26.9350,0.027,0.722,0.674,0.07,0.13,0.0,0.26,-0.38,-0.39
2022-04-27 12:13:26.9450,0.025,0.725,0.673,0.04,0.13,0.01,0.26,-0.39,-0.38
2022-04-27 12:13:26.9550,0.021,0.719,0.666,0.07,0.13,0.02,0.27,-0.41,-0.37
2022-04-27 12:13:26.9650,0.018,0.72,0.658,0.12,0.21,0.07,0.29,-0.43,-0.36
2022-04-27 12:13:26.9750,0.021,0.725,0.657,0.13,0.19,0.13,0.3,-0.45,-0.35
2022-04-27 12:13:26.9850,0.022,0.728,0.67,0.11,0.17,0.07,0.29,-0.43,-0.35
Time,0.024,0.73,0.676,0.09,0.16,-0.08,0.27,-0.41,-0.35
2022-04-27 12:13:27.0040,0.023,0.73,0.673,0.08,0.16,-0.13,0.26,-0.38,-0.34
2022-04-27 12:13:27.0140,0.02,0.732,0.665,0.1,0.18,-0.1,0.25,-0.36,-0.34
2022-04-27 12:13:27.0240,0.02,0.734,0.657,0.12,0.18,-0.05,0.24,-0.35,-0.32
2022-04-27 12:13:27.0350,0.018,0.732,0.649,0.12,0.18,0.02,0.23,-0.35,-0.31
2022-04-27 12:13:27.0440,0.018,0.735,0.645,0.14,0.21,0.07,0.22,-0.35,-0.3
2022-04-27 12:13:27.0540,0.018,0.735,0.642,0.14,0.2,0.1,0.21,-0.35,-0.29
2022-04-27 12:13:27.0580,0.019,0.737,0.645,0.13,0.21,0.09,0.2,-0.34,-0.27
2022-04-27 12:13:27.0750,0.019,0.738,0.647,0.13,0.19,0.05,0.17,-0.33,-0.26
2022-04-27 12:13:27.0830,0.019,0.739,0.65,0.13,0.21,0.02,0.15,-0.31,-0.25
2022-04-27 12:13:27.0940,0.019,0.742,0.651,0.14,0.19,-0.02,0.13,-0.3,-0.23
2022-04-27 12:13:27.1030,0.019,0.739,0.649,0.13,0.19,-0.04,0.11,-0.27,-0.22
2022-04-27 12:13:27.1130,0.017,0.741,0.645,0.14,0.22,-0.02,0.11,-0.27,-0.22
2022-04-27 12:13:27.1240,0.017,0.739,0.64,0.16,0.22,0.02,0.09,-0.25,-0.19
2022-04-27 12:13:27.1340,0.016,0.74,0.641,0.15,0.23,0.04,0.09,-0.23,-0.17
2022-04-27 12:13:27.1440,0.017,0.74,0.642,0.17,0.22,0.03,0.08,-0.21,-0.15
2022-04-27 12:13:27.1540,0.017,0.743,0.644,0.16,0.23,0.01,0.07,-0.2,-0.14
2022-04-27 12:13:27.1640,0.017,0.742,0.644,0.17,0.21,-0.01,0.07,-0.18,-0.12
2022-04-27 12:13:27.1730,0.018,0.746,0.644,0.16,0.21,-0.02,0.06,-0.17,-0.11
2022-04-27 12:13:27.1830,0.019,0.746,0.644,0.15,0.18,-0.02,0.05,-0.16,-0.09
2022-04-27 12:13:27.1920,0.019,0.746,0.644,0.15,0.18,-0.02,0.05,-0.13,-0.08
2022-04-27 12:13:27.2030,0.02,0.748,0.648,0.15,0.18,-0.04,0.05,-0.1,-0.07
2022-04-27 12:13:27.2130,0.019,0.747,0.65,0.14,0.18,-0.08,0.04,-0.07,-0.05
2022-04-27 12:13:27.2230,0.019,0.747,0.65,0.15,0.19,-0.1,0.03,-0.04,-0.04
2022-04-27 12:13:27.2330,0.018,0.746,0.647,0.15,0.2,-0.09,0.03,-0.02,-0.02
2022-04-27 12:13:27.2430,0.018,0.746,0.642,0.16,0.2,-0.06,0.03,-0.01,-0.0
2022-04-27 12:13:27.2530,0.018,0.746,0.641,0.16,0.21,-0.01,0.03,-0.0,0.01
2022-04-27 12:13:27.2640,0.022,0.756,0.647,0.15,0.18,-0.02,0.03,0.01,0.01
2022-04-27 12:13:27.2730,0.024,0.757,0.647,0.11,0.09,-0.07,0.03,0.03,0.01
2022-04-27 12:13:27.2830,0.025,0.755,0.644,0.1,0.1,-0.07,0.04,0.04,0.01
2022-04-27 12:13:27.2940,0.025,0.758,0.642,0.09,0.12,-0.03,0.04,0.05,0.01
2022-04-27 12:13:27.3020,0.024,0.751,0.645,0.08,0.1,-0.03,0.05,0.06,0.03
2022-04-27 12:13:27.3120,0.02,0.739,0.644,0.09,0.2,-0.06,0.05,0.06,0.05
2022-04-27 12:13:27.3230,0.013,0.75,0.641,0.16,0.27,-0.04,0.07,0.06,0.07
2022-04-27 12:13:27.3330,0.013,0.746,0.633,0.2,0.18,-0.02,0.09,0.03,0.09
2022-04-27 12:13:27.3430,0.018,0.755,0.618,0.2,0.22,0.1,0.09,0.02,0.09
2022-04-27 12:13:27.3530,0.022,0.769,0.622,0.13,0.1,0.19,0.09,0.0,0.06
2022-04-27 12:13:27.3620,0.017,0.792,0.618,0.16,-0.07,0.14,0.12,-0.02,0.05
2022-04-27 12:13:27.3720,0.034,0.774,0.613,0.13,-0.18,0.19,0.14,-0.02,0.02
2022-04-27 12:13:27.3830,0.047,0.763,0.623,-0.02,0.01,0.2,0.14,-0.0,0.02
2022-04-27 12:13:27.3910,0.051,0.766,0.633,-0.15,0.08,0.08,0.13,0.0,0.01
2022-04-27 12:13:27.4010,0.035,0.76,0.622,-0.12,0.08,0.0,0.13,-0.02,-0.01
2022-04-27 12:13:27.4110,0.031,0.763,0.624,0.02,0.14,0.11,0.13,-0.05,-0.01
2022-04-27 12:13:27.4210,0.025,0.771,0.627,0.06,0.09,0.05,0.13,-0.07,-0.01
2022-04-27 12:13:27.4320,0.029,0.766,0.625,0.1,0.04,0.03,0.12,-0.08,-0.01
2022-04-27 12:13:27.4420,0.027,0.765,0.624,0.07,0.11,0.05,0.12,-0.08,-0.01
2022-04-27 12:13:27.4520,0.029,0.767,0.627,0.09,0.1,0.03,0.12,-0.07,-0.01
2022-04-27 12:13:27.4620,0.028,0.77,0.622,0.07,0.09,0.01,0.13,-0.07,-0.02
2022-04-27 12:13:27.4720,0.031,0.772,0.618,0.08,0.07,0.06,0.13,-0.07,-0.02
2022-04-27 12:13:27.4820,0.03,0.772,0.611,0.06,0.06,0.08,0.14,-0.08,-0.03
2022-04-27 12:13:27.4920,0.033,0.773,0.606,0.08,0.08,0.15,0.15,-0.08,-0.04
2022-04-27 12:13:27.5020,0.03,0.79,0.607,0.01,0.06,0.17,0.16,-0.1,-0.13
2022-04-27 12:13:27.5110,0.044,0.809,0.605,0.1,-0.17,0.15,0.15,-0.12,-0.14
2022-04-27 12:13:27.5210,0.065,0.79,0.591,-0.17,-0.23,0.18,0.15,-0.18,-0.15
2022-04-27 12:13:27.5320,0.034,0.778,0.577,-0.23,-0.01,0.32,0.16,-0.25,-0.16
2022-04-27 12:13:27.5410,0.033,0.783,0.583,0.07,0.06,0.41,0.17,-0.3,-0.17
2022-04-27 12:13:27.5510,0.035,0.786,0.593,0.02,0.01,0.31,0.18,-0.33,-0.19
2022-04-27 12:13:27.5620,0.031,0.794,0.604,0.04,-0.01,0.19,0.18,-0.32,-0.22
2022-04-27 12:13:27.5720,0.029,0.804,0.606,0.07,-0.09,0.08,0.2,-0.33,-0.24
2022-04-27 12:13:27.5810,0.03,0.805,0.599,0.09,-0.16,0.07,0.22,-0.34,-0.27
2022-04-27 12:13:27.5900,0.032,0.798,0.59,0.08,-0.13,0.12,0.23,-0.36,-0.29
2022-04-27 12:13:27.6020,0.034,0.797,0.585,0.06,-0.05,0.2,0.24,-0.38,-0.31
2022-04-27 12:13:27.6120,0.037,0.801,0.582,0.03,-0.04,0.22,0.24,-0.41,-0.33
2022-04-27 12:13:27.6230,0.037,0.808,0.581,0.0,-0.06,0.22,0.26,-0.44,-0.37
2022-04-27 12:13:27.6320,0.033,0.83,0.571,0.01,-0.14,0.23,0.27,-0.49,-0.46
2022-04-27 12:13:27.6410,0.029,0.876,0.56,0.04,-0.41,0.31,0.27,-0.57,-0.6
2022-04-27 12:13:27.6500,0.042,0.891,0.547,0.05,-0.84,0.4,0.25,-0.64,-0.72
2022-04-27 12:13:27.6600,0.037,0.917,0.552,-0.11,-0.89,0.47,0.27,-0.64,-0.85
2022-04-27 12:13:27.6700,0.017,0.969,0.543,-0.03,-1.25,0.4,0.38,-0.6,-1.01
2022-04-27 12:13:27.6810,0.003,0.997,0.523,0.11,-1.69,0.5,0.59,-0.52,-1.19
2022-04-27 12:13:27.6910,0.009,1.003,0.509,0.14,-1.85,0.64,0.87,-0.45,-1.36
2022-04-27 12:13:27.7000,0.051,1.0,0.498,-0.08,-1.83,0.68,1.24,-0.44,-1.43
2022-04-27 12:13:27.7100,0.091,0.986,0.482,-0.63,-1.71,0.7,1.69,-0.51,-1.41
2022-04-27 12:13:27.7200,0.103,0.975,0.475,-1.04,-1.44,0.71,2.13,-0.63,-1.33
2022-04-27 12:13:27.7310,0.094,0.999,0.485,-1.16,-1.3,0.55,2.48,-0.74,-1.23
2022-04-27 12:13:27.7340,0.066,1.051,0.501,-1.1,-1.47,0.21,2.72,-0.74,-1.17
2022-04-27 12:13:27.7500,0.029,1.056,0.508,-0.85,-1.84,-0.18,2.94,-0.58,-1.16
2022-04-27 12:13:27.7600,-0.008,1.054,0.493,-0.55,-1.62,-0.44,3.08,-0.42,-1.18
2022-04-27 12:13:27.7710,-0.018,1.101,0.485,-0.32,-1.61,-0.54,3.14,-0.25,-1.17
2022-04-27 12:13:27.7800,-0.018,1.125,0.492,-0.37,-1.96,-0.79,3.14,-0.08,-1.14
2022-04-27 12:13:27.7890,-0.02,1.103,0.491,-0.47,-1.96,-1.14,3.07,0.07,-1.07
2022-04-27 12:13:27.8000,-0.028,1.048,0.481,-0.53,-1.56,-1.37,2.96,0.2,-0.99
2022-04-27 12:13:27.8100,-0.041,1.005,0.462,-0.54,-0.85,-1.53,2.84,0.32,-0.91
2022-04-27 12:13:27.8200,-0.048,1.048,0.434,-0.5,-0.6,-1.58,2.71,0.41,-0.8
2022-04-27 12:13:27.8300,-0.047,1.063,0.414,-0.55,-1.0,-1.56,2.57,0.51,-0.68
2022-04-27 12:13:27.8400,-0.058,1.033,0.392,-0.62,-0.92,-1.62,2.42,0.61,-0.57
2022-04-27 12:13:27.8500,-0.07,1.031,0.354,-0.55,-0.59,-1.61,2.32,0.65,-0.46
2022-04-27 12:13:27.8600,-0.076,1.042,0.32,-0.51,-0.64,-1.43,2.24,0.67,-0.35
2022-04-27 12:13:27.8700,-0.079,1.02,0.295,-0.5,-0.63,-1.35,2.17,0.7,-0.23
2022-04-27 12:13:27.8800,-0.084,1.002,0.264,-0.5,-0.29,-1.32,2.1,0.71,-0.11
2022-04-27 12:13:27.8890,-0.085,1.023,0.233,-0.48,-0.25,-1.21,2.05,0.7,0.02
2022-04-27 12:13:27.8990,-0.079,1.054,0.213,-0.48,-0.44,-1.14,1.98,0.69,0.18
2022-04-27 12:13:27.9090,-0.081,0.997,0.193,-0.53,-0.68,-1.15,1.93,0.7,0.3
2022-04-27 12:13:27.9190,-0.096,0.914,0.162,-0.43,0.21,-1.13,1.9,0.66,0.37
2022-04-27 12:13:27.9290,-0.1,0.896,0.129,-0.27,0.84,-0.99,1.87,0.62,0.44
2022-04-27 12:13:27.9400,-0.091,0.905,0.112,-0.23,0.92,-0.89,1.81,0.59,0.55
2022-04-27 12:13:27.9490,-0.069,0.962,0.108,-0.27,0.79,-0.93,1.68,0.58,0.78
2022-04-27 12:13:27.9590,-0.019,1.099,0.103,-0.47,0.05,-1.07,1.52,0.55,1.19
2022-04-27 12:13:27.9700,0.017,1.271,0.083,-0.87,-1.46,-1.14,1.52,0.55,1.19
2022-04-27 12:13:27.9790,0.018,1.382,0.052,-0.93,-2.99,-1.03,1.17,0.46,2.01
2022-04-27 12:13:27.9890,0.024,1.42,-0.01,-0.73,-4.02,-0.81,1.3,0.27,2.34
2022-04-27 12:13:27.9990,0.023,1.349,-0.057,-0.56,-3.95,-0.27,1.61,0.09,2.56
2022-04-27 12:13:28.0080,0.018,1.328,-0.038,-0.25,-3.35,-0.14,1.74,-0.02,2.76
2022-04-27 12:13:28.0180,0.04,1.337,0.022,-0.01,-3.27,-0.65,1.69,-0.11,2.93
2022-04-27 12:13:28.0280,0.057,1.343,0.047,0.05,-3.4,-1.35,1.51,-0.15,3.05
2022-04-27 12:13:28.0390,0.068,1.362,0.051,0.22,-3.49,-1.66,1.3,-0.17,3.15
2022-04-27 12:13:28.0490,0.09,1.413,0.038,0.37,-3.8,-1.78,1.1,-0.2,3.22
2022-04-27 12:13:28.0590,0.106,1.464,0.018,0.46,-4.39,-1.72,0.9,-0.24,3.22
2022-04-27 12:13:28.0690,0.107,1.491,0.005,0.67,-4.91,-1.62,0.71,-0.25,3.13
2022-04-27 12:13:28.0790,0.111,1.515,-0.001,0.94,-5.24,-1.58,0.51,-0.25,2.96
2022-04-27 12:13:28.0890,0.12,1.476,-0.006,1.15,-5.41,-1.57,0.29,-0.21,2.76
2022-04-27 12:13:28.0970,0.128,1.41,-0.015,1.31,-4.99,-1.55,0.29,-0.21,2.76
2022-04-27 12:13:28.1070,0.137,1.312,-0.044,1.47,-4.36,-1.43,-0.17,-0.03,2.25
2022-04-27 12:13:28.1180,0.151,1.196,-0.094,1.56,-3.36,-1.06,-0.31,0.07,2.01
2022-04-27 12:13:28.1280,0.168,1.106,-0.141,1.6,-2.32,-0.53,-0.33,0.16,1.77
2022-04-27 12:13:28.1380,0.18,1.053,-0.176,1.59,-1.57,-0.05,-0.28,0.22,1.54
2022-04-27 12:13:28.1480,0.191,1.018,-0.191,1.62,-1.17,0.28,-0.21,0.26,1.29
2022-04-27 12:13:28.1580,0.198,1.021,-0.196,1.62,-0.92,0.41,-0.15,0.28,1.03
2022-04-27 12:13:28.1690,0.202,1.06,-0.199,1.67,-1.1,0.48,-0.11,0.29,0.74
2022-04-27 12:13:28.1790,0.205,1.11,-0.199,1.69,-1.57,0.52,-0.08,0.24,0.44
2022-04-27 12:13:28.1870,0.215,1.1,-0.202,1.69,-1.98,0.55,-0.07,0.17,0.18
2022-04-27 12:13:28.1970,0.223,1.078,-0.196,1.6,-1.76,0.56,-0.03,0.09,-0.08
2022-04-27 12:13:28.2070,0.233,1.03,-0.187,1.52,-1.55,0.51,0.01,0.02,-0.28
2022-04-27 12:13:28.2170,0.242,0.969,-0.169,1.38,-0.95,0.38,0.05,-0.04,-0.47
2022-04-27 12:13:28.2280,0.246,0.957,-0.163,1.27,-0.45,0.23,0.08,-0.1,-0.64
2022-04-27 12:13:28.2370,0.248,0.938,-0.162,1.16,-0.34,0.17,0.08,-0.1,-0.64
2022-04-27 12:13:28.2480,0.249,0.923,-0.158,1.07,-0.1,0.15,0.12,-0.27,-0.92
2022-04-27 12:13:28.2580,0.252,0.943,-0.144,0.97,0.01,0.07,0.09,-0.35,-1.01
2022-04-27 12:13:28.2670,0.259,0.947,-0.129,0.82,-0.2,-0.11,0.01,-0.4,-1.07
2022-04-27 12:13:28.2770,0.256,0.931,-0.116,0.68,-0.1,-0.26,-0.09,-0.43,-1.11
2022-04-27 12:13:28.2880,0.256,0.916,-0.115,0.6,0.07,-0.37,-0.09,-0.43,-1.11
2022-04-27 12:13:28.2960,0.251,0.868,-0.115,0.49,0.32,-0.35,-0.35,-0.39,-1.12
2022-04-27 12:13:28.3060,0.245,0.816,-0.118,0.45,0.84,-0.33,-0.45,-0.33,-1.1
2022-04-27 12:13:28.3160,0.234,0.781,-0.13,0.41,1.42,-0.23,-0.49,-0.26,-1.1
2022-04-27 12:13:28.3290,0.225,0.79,-0.146,0.42,1.67,-0.07,-0.49,-0.22,-1.08
2022-04-27 12:13:28.3360,0.223,0.825,-0.161,0.37,1.55,0.13,-0.46,-0.2,-1.03
2022-04-27 12:13:28.3470,0.216,0.834,-0.168,0.3,1.21,0.3,-0.42,-0.2,-1.01
2022-04-27 12:13:28.3570,0.204,0.841,-0.177,0.3,1.27,0.4,-0.36,-0.21,-0.97
2022-04-27 12:13:28.3670,0.193,0.868,-0.186,0.32,1.14,0.51,-0.25,-0.23,-0.96
2022-04-27 12:13:28.3760,0.179,0.91,-0.19,0.34,0.86,0.61,-0.1,-0.25,-0.95
2022-04-27 12:13:28.3860,0.17,0.931,-0.19,0.37,0.5,0.63,0.09,-0.27,-0.94
2022-04-27 12:13:28.3940,0.167,0.928,-0.181,0.36,0.37,0.61,0.31,-0.29,-0.89
2022-04-27 12:13:28.4060,0.164,0.921,-0.166,0.29,0.44,0.46,0.51,-0.33,-0.83
2022-04-27 12:13:28.4160,0.157,0.909,-0.142,0.26,0.52,0.23,0.66,-0.36,-0.76
2022-04-27 12:13:28.4260,0.15,0.897,-0.116,0.25,0.65,-0.09,0.74,-0.35,-0.69
2022-04-27 12:13:28.4370,0.143,0.884,-0.097,0.25,0.77,-0.41,0.78,-0.31,-0.62
2022-04-27 12:13:28.4460,0.136,0.875,-0.094,0.26,0.89,-0.64,0.81,-0.3,-0.56
2022-04-27 12:13:28.4560,0.128,0.871,-0.102,0.27,0.96,-0.72,0.84,-0.3,-0.51
Time,0.12,0.865,-0.108,0.29,1.0,-0.71,0.87,-0.31,-0.47
2022-04-27 12:13:28.4760,0.112,0.855,-0.109,0.33,1.06,-0.77,0.87,-0.3,-0.45
2022-04-27 12:13:28.4860,0.107,0.843,-0.11,0.35,1.16,-0.84,0.86,-0.28,-0.42
2022-04-27 12:13:28.4960,0.103,0.839,-0.114,0.35,1.24,-0.92,0.85,-0.24,-0.39
2022-04-27 12:13:28.5050,0.098,0.834,-0.125,0.35,1.27,-0.94,0.85,-0.22,-0.37
2022-04-27 12:13:28.5150,0.094,0.831,-0.136,0.36,1.3,-0.91,0.86,-0.2,-0.35
2022-04-27 12:13:28.5260,0.091,0.843,-0.147,0.36,1.3,-0.89,0.88,-0.17,-0.33
2022-04-27 12:13:28.5360,0.091,0.869,-0.155,0.35,1.11,-0.87,0.91,-0.14,-0.3
2022-04-27 12:13:28.5460,0.096,0.891,-0.158,0.32,0.84,-0.88,0.93,-0.1,-0.26
2022-04-27 12:13:28.5560,0.092,0.927,-0.155,0.24,0.58,-0.96,0.89,-0.06,-0.25
2022-04-27 12:13:28.5650,0.08,0.906,-0.15,0.29,0.27,-1.07,0.78,-0.03,-0.26
2022-04-27 12:13:28.5750,0.079,0.898,-0.143,0.37,0.54,-1.21,0.55,0.04,-0.26
2022-04-27 12:13:28.5850,0.08,0.892,-0.155,0.33,0.54,-1.28,0.3,0.12,-0.27
2022-04-27 12:13:28.5940,0.072,0.856,-0.178,0.32,0.68,-1.15,0.09,0.17,-0.3
2022-04-27 12:13:28.6040,0.067,0.839,-0.203,0.39,1.03,-0.91,-0.04,0.2,-0.34
2022-04-27 12:13:28.6150,0.069,0.84,-0.224,0.39,1.14,-0.67,-0.11,0.22,-0.36
2022-04-27 12:13:28.6250,0.071,0.845,-0.24,0.33,1.13,-0.46,-0.17,0.23,-0.37
2022-04-27 12:13:28.6350,0.076,0.86,-0.251,0.29,1.06,-0.3,-0.22,0.25,-0.36
2022-04-27 12:13:28.6460,0.083,0.882,-0.261,0.2,0.91,-0.17,-0.25,0.27,-0.32
2022-04-27 12:13:28.6550,0.087,0.898,-0.272,0.11,0.7,-0.04,-0.25,0.29,-0.27
2022-04-27 12:13:28.6660,0.086,0.923,-0.282,0.08,0.55,0.09,-0.24,0.29,-0.21
2022-04-27 12:13:28.6750,0.089,0.95,-0.287,0.07,0.29,0.21,-0.2,0.29,-0.12
2022-04-27 12:13:28.6850,0.093,0.969,-0.285,0.02,0.05,0.26,-0.18,0.29,-0.01
2022-04-27 12:13:28.6950,0.092,0.978,-0.274,0.01,-0.11,0.24,-0.22,0.32,0.09
2022-04-27 12:13:28.7050,0.091,0.977,-0.258,0.04,-0.16,0.14,-0.3,0.36,0.2
2022-04-27 12:13:28.7150,0.093,0.971,-0.248,0.08,-0.14,0.02,-0.41,0.41,0.31
2022-04-27 12:13:28.7250,0.087,0.955,-0.242,0.11,-0.05,-0.01,-0.53,0.47,0.37
2022-04-27 12:13:28.7340,0.079,0.946,-0.247,0.24,0.13,0.01,-0.62,0.51,0.42
2022-04-27 12:13:28.7440,0.081,0.971,-0.249,0.34,0.17,0.13,-0.68,0.54,0.48
2022-04-27 12:13:28.7550,0.089,1.024,-0.247,0.36,-0.18,0.21,-0.73,0.58,0.52
2022-04-27 12:13:28.7650,0.081,1.028,-0.238,0.37,-0.63,0.25,-0.79,0.64,0.52
2022-04-27 12:13:28.7750,0.071,1.005,-0.223,0.54,-0.54,0.23,-0.88,0.72,0.48
2022-04-27 12:13:28.7840,0.071,0.983,-0.211,0.66,-0.3,0.18,-0.99,0.81,0.42
2022-04-27 12:13:28.7940,0.069,0.965,-0.2,0.71,-0.05,0.17,-1.1,0.91,0.34
2022-04-27 12:13:28.8040,0.068,0.978,-0.2,0.79,0.07,0.21,-1.15,1.02,0.27
2022-04-27 12:13:28.8140,0.069,0.949,-0.197,0.83,-0.01,0.34,-1.15,1.11,0.2
2022-04-27 12:13:28.8240,0.072,0.913,-0.181,0.85,0.34,0.41,-1.14,1.2,0.13
2022-04-27 12:13:28.8340,0.076,0.875,-0.158,0.85,0.74,0.37,-1.14,1.28,0.07
2022-04-27 12:13:28.8450,0.085,0.857,-0.128,0.82,1.07,0.24,-1.14,1.33,0.01
2022-04-27 12:13:28.8540,0.096,0.858,-0.101,0.75,1.21,0.08,-1.15,1.36,-0.04
2022-04-27 12:13:28.8640,0.11,0.862,-0.082,0.64,1.2,-0.04,-1.12,1.35,-0.09
2022-04-27 12:13:28.8740,0.124,0.859,-0.07,0.5,1.17,-0.08,-1.06,1.32,-0.14
2022-04-27 12:13:28.8830,0.139,0.857,-0.063,0.36,1.23,-0.06,-0.98,1.26,-0.19
2022-04-27 12:13:28.8930,0.153,0.86,-0.057,0.19,1.23,-0.01,-0.9,1.19,-0.24
2022-04-27 12:13:28.9040,0.158,0.867,-0.05,0.06,1.21,0.04,-0.86,1.13,-0.3
2022-04-27 12:13:28.9130,0.157,0.877,-0.045,0.0,1.14,0.06,-0.83,1.08,-0.38
2022-04-27 12:13:28.9230,0.155,0.888,-0.046,-0.01,1.05,0.13,-0.77,1.02,-0.45
2022-04-27 12:13:28.9340,0.15,0.9,-0.052,-0.04,0.95,0.24,-0.7,0.95,-0.54
2022-04-27 12:13:28.9430,0.145,0.912,-0.054,-0.04,0.85,0.38,-0.63,0.89,-0.64
2022-04-27 12:13:28.9540,0.137,0.925,-0.048,-0.04,0.72,0.45,-0.56,0.84,-0.74
2022-04-27 12:13:28.9630,0.131,0.934,-0.039,-0.04,0.62,0.44,-0.51,0.78,-0.84
2022-04-27 12:13:28.9730,0.124,0.943,-0.033,-0.07,0.54,0.42,-0.49,0.74,-0.95
2022-04-27 12:13:28.9830,0.117,0.952,-0.024,-0.09,0.46,0.41,-0.48,0.69,-1.05
2022-04-27 12:13:28.9930,0.112,0.95,-0.014,-0.13,0.42,0.36,-0.48,0.64,-1.14
2022-04-27 12:13:29.0030,0.102,0.953,-0.016,-0.19,0.44,0.35,-0.49,0.57,-1.22
2022-04-27 12:13:29.0130,0.094,0.957,-0.021,-0.22,0.41,0.43,-0.47,0.5,-1.3
2022-04-27 12:13:29.0230,0.086,0.958,-0.026,-0.26,0.38,0.53,-0.45,0.4,-1.36
2022-04-27 12:13:29.0340,0.076,0.952,-0.036,-0.31,0.4,0.64,-0.42,0.29,-1.42
2022-04-27 12:13:29.0430,0.067,0.946,-0.044,-0.35,0.46,0.78,-0.38,0.16,-1.45
2022-04-27 12:13:29.0530,0.056,0.934,-0.052,-0.41,0.55,0.89,-0.33,0.01,-1.48
2022-04-27 12:13:29.0630,0.043,0.932,-0.06,-0.44,0.63,1.0,-0.27,-0.14,-1.49
2022-04-27 12:13:29.0730,0.028,0.932,-0.068,-0.45,0.66,1.1,-0.19,-0.31,-1.51
2022-04-27 12:13:29.0820,0.013,0.94,-0.077,-0.45,0.63,1.2,-0.09,-0.48,-1.52
2022-04-27 12:13:29.0920,-0.0,0.94,-0.083,-0.45,0.56,1.29,0.02,-0.65,-1.53
2022-04-27 12:13:29.1030,-0.012,0.944,-0.083,-0.47,0.56,1.34,0.13,-0.8,-1.53
2022-04-27 12:13:29.1130,-0.025,0.947,-0.079,-0.5,0.49,1.32,0.22,-0.92,-1.53
2022-04-27 12:13:29.1230,-0.04,0.952,-0.07,-0.52,0.47,1.25,0.3,-1.02,-1.53
2022-04-27 12:13:29.1320,-0.055,0.959,-0.067,-0.5,0.38,1.15,0.3,-1.02,-1.53
2022-04-27 12:13:29.1420,-0.07,0.969,-0.061,-0.51,0.3,1.09,0.45,-1.17,-1.53
2022-04-27 12:13:29.1460,-0.084,0.972,-0.058,-0.5,0.21,1.0,0.52,-1.22,-1.52
2022-04-27 12:13:29.1620,-0.097,0.98,-0.056,-0.51,0.15,0.94,0.6,-1.26,-1.51
2022-04-27 12:13:29.1720,-0.11,0.982,-0.052,-0.52,0.06,0.87,0.65,-1.29,-1.5
2022-04-27 12:13:29.1820,-0.122,0.982,-0.05,-0.53,0.02,0.79,0.71,-1.31,-1.47
2022-04-27 12:13:29.1910,-0.132,0.978,-0.05,-0.55,0.01,0.73,0.76,-1.32,-1.44
2022-04-27 12:13:29.2020,-0.142,0.974,-0.042,-0.6,0.03,0.68,0.81,-1.3,-1.4
2022-04-27 12:13:29.2120,-0.151,0.973,-0.035,-0.63,0.04,0.54,0.85,-1.27,-1.36
2022-04-27 12:13:29.2220,-0.163,0.974,-0.03,-0.66,0.02,0.42,0.9,-1.23,-1.32
2022-04-27 12:13:29.2310,-0.174,0.979,-0.028,-0.66,-0.04,0.32,0.94,-1.19,-1.28
2022-04-27 12:13:29.2420,-0.184,0.982,-0.023,-0.68,-0.1,0.23,0.97,-1.13,-1.23
2022-04-27 12:13:29.2510,-0.192,0.986,-0.016,-0.7,-0.17,0.11,0.99,-1.06,-1.17
2022-04-27 12:13:29.2610,-0.202,0.987,-0.01,-0.73,-0.24,-0.02,0.99,-0.99,-1.11
2022-04-27 12:13:29.2720,-0.207,0.99,-0.004,-0.75,-0.27,-0.14,0.97,-0.92,-1.02
2022-04-27 12:13:29.2820,-0.212,0.988,0.009,-0.8,-0.34,-0.28,0.91,-0.83,-0.93
2022-04-27 12:13:29.2900,-0.22,0.977,0.022,-0.82,-0.31,-0.47,0.8,-0.74,-0.82
2022-04-27 12:13:29.3010,-0.225,0.962,0.029,-0.82,-0.2,-0.64,0.67,-0.64,-0.7
2022-04-27 12:13:29.3110,-0.231,0.946,0.031,-0.84,-0.08,-0.73,0.51,-0.54,-0.56
2022-04-27 12:13:29.3210,-0.235,0.944,0.027,-0.83,0.02,-0.78,0.37,-0.45,-0.4
2022-04-27 12:13:29.3310,-0.238,0.955,0.016,-0.84,0.0,-0.73,0.26,-0.36,-0.25
2022-04-27 12:13:29.3420,-0.24,0.976,0.005,-0.82,-0.15,-0.63,0.2,-0.27,-0.08
2022-04-27 12:13:29.3510,-0.241,0.967,0.001,-0.82,-0.35,-0.54,0.16,-0.17,0.08
2022-04-27 12:13:29.3610,-0.239,0.957,0.002,-0.8,-0.12,-0.52,0.12,-0.07,0.25
2022-04-27 12:13:29.3710,-0.238,0.963,-0.004,-0.8,-0.16,-0.53,0.06,0.02,0.41
2022-04-27 12:13:29.3800,-0.235,0.958,-0.01,-0.76,-0.13,-0.47,-0.01,0.09,0.58
2022-04-27 12:13:29.3900,-0.234,0.939,-0.014,-0.73,-0.07,-0.41,-0.09,0.17,0.74
2022-04-27 12:13:29.4000,-0.231,0.938,-0.017,-0.67,0.15,-0.38,-0.14,0.24,0.89
2022-04-27 12:13:29.4100,-0.226,0.932,-0.024,-0.62,0.16,-0.33,-0.19,0.3,1.02
2022-04-27 12:13:29.4210,-0.22,0.928,-0.029,-0.58,0.27,-0.26,-0.24,0.36,1.15
2022-04-27 12:13:29.4300,-0.212,0.947,-0.035,-0.53,0.29,-0.2,-0.27,0.41,1.25
2022-04-27 12:13:29.4410,-0.204,0.965,-0.045,-0.48,0.11,-0.11,-0.28,0.45,1.34
2022-04-27 12:13:29.4510,-0.196,0.971,-0.052,-0.44,0.01,0.0,-0.29,0.48,1.4
2022-04-27 12:13:29.4610,-0.186,0.973,-0.054,-0.38,-0.01,0.07,-0.28,0.51,1.46
2022-04-27 12:13:29.4710,-0.177,0.976,-0.055,-0.33,0.01,0.11,-0.28,0.53,1.5
2022-04-27 12:13:29.4800,-0.167,0.98,-0.056,-0.28,0.01,0.13,-0.29,0.53,1.53
2022-04-27 12:13:29.4900,-0.158,0.984,-0.055,-0.23,0.0,0.15,-0.3,0.52,1.55
2022-04-27 12:13:29.5000,-0.148,0.989,-0.052,-0.17,-0.02,0.15,-0.31,0.5,1.56
2022-04-27 12:13:29.5100,-0.14,0.995,-0.048,-0.1,-0.04,0.14,-0.31,0.47,1.56
2022-04-27 12:13:29.5210,-0.129,1.0,-0.043,-0.04,-0.07,0.12,-0.3,0.45,1.56
2022-04-27 12:13:29.5310,-0.12,1.009,-0.039,0.01,-0.11,0.1,-0.28,0.42,1.55
2022-04-27 12:13:29.5400,-0.109,1.011,-0.034,0.07,-0.17,0.08,-0.28,0.38,1.54
2022-04-27 12:13:29.5500,-0.098,1.008,-0.027,0.11,-0.15,0.06,-0.28,0.36,1.52
2022-04-27 12:13:29.5600,-0.086,1.01,-0.021,0.15,-0.13,0.01,-0.31,0.33,1.5
2022-04-27 12:13:29.5700,-0.072,1.011,-0.017,0.17,-0.11,-0.01,-0.33,0.3,1.47
2022-04-27 12:13:29.5800,-0.061,1.01,-0.012,0.18,-0.13,-0.02,-0.35,0.27,1.44
2022-04-27 12:13:29.5900,-0.051,1.016,-0.007,0.21,-0.12,-0.03,-0.35,0.25,1.4
2022-04-27 12:13:29.6000,-0.043,1.015,-0.003,0.26,-0.17,-0.06,-0.35,0.22,1.35
2022-04-27 12:13:29.6090,-0.034,1.01,0.003,0.31,-0.14,-0.05,-0.36,0.19,1.3
2022-04-27 12:13:29.6200,-0.027,1.01,0.01,0.35,-0.1,-0.08,-0.37,0.17,1.24
2022-04-27 12:13:29.6300,-0.02,1.011,0.015,0.4,-0.11,-0.12,-0.38,0.14,1.18
2022-04-27 12:13:29.6400,-0.015,1.018,0.013,0.44,-0.12,-0.11,-0.38,0.12,1.1
2022-04-27 12:13:29.6490,-0.009,1.027,0.012,0.51,-0.21,-0.05,-0.37,0.1,1.02
2022-04-27 12:13:29.6600,-0.005,1.034,0.011,0.55,-0.31,-0.01,-0.36,0.08,0.93
2022-04-27 12:13:29.6690,0.001,1.027,0.011,0.59,-0.35,0.04,-0.36,0.08,0.8492386341094971
2022-04-27 12:13:29.6800,0.009,1.024,0.015,0.6,-0.28,0.07,-0.41,0.08,0.77
2022-04-27 12:13:29.6890,0.011,1.033,0.018,0.62,-0.28,0.06,-0.47,0.09,0.68
2022-04-27 12:13:29.6990,0.01,1.071,0.017,0.67,-0.42,0.1,-0.51,0.09,0.56
2022-04-27 12:13:29.7090,0.008,1.103,0.018,0.74,-0.86,0.15,-0.53,0.09,0.44
2022-04-27 12:13:29.7190,0.013,1.099,0.024,0.78,-1.07,0.19,-0.55,0.08,0.35
2022-04-27 12:13:29.7290,0.025,1.086,0.041,0.75,-1.0,0.17,-0.61,0.09,0.27
2022-04-27 12:13:29.7390,0.032,1.073,0.06,0.65,-0.86,0.04,-0.7,0.11,0.2
2022-04-27 12:13:29.7490,0.039,1.071,0.072,0.61,-0.77,-0.06,-0.83,0.12,0.13
2022-04-27 12:13:29.7590,0.049,1.07,0.074,0.54,-0.77,-0.07,-0.83,0.12,0.13
2022-04-27 12:13:29.7690,0.056,1.062,0.073,0.46,-0.75,0.02,-1.01,0.09,0.01
2022-04-27 12:13:29.7780,0.063,1.053,0.072,0.39,-0.68,0.14,-1.04,0.05,-0.03
2022-04-27 12:13:29.7880,0.067,1.04,0.074,0.32,-0.59,0.24,-1.05,0.01,-0.08
2022-04-27 12:13:29.7980,0.068,1.028,0.075,0.28,-0.47,0.32,-1.07,-0.03,-0.12
2022-04-27 12:13:29.8080,0.072,1.016,0.082,0.25,-0.37,0.41,-1.07,-0.06,-0.14
2022-04-27 12:13:29.8180,0.072,1.013,0.09,0.21,-0.26,0.43,-1.09,-0.09,-0.17
2022-04-27 12:13:29.8280,0.074,1.017,0.097,0.19,-0.29,0.46,-1.1,-0.12,-0.19
2022-04-27 12:13:29.8390,0.079,1.02,0.109,0.14,-0.32,0.49,-1.1,-0.16,-0.21
2022-04-27 12:13:29.8480,0.08,1.025,0.122,0.09,-0.38,0.47,-1.11,-0.2,-0.22
2022-04-27 12:13:29.8580,0.079,1.028,0.136,0.07,-0.45,0.45,-1.12,-0.24,-0.22
2022-04-27 12:13:29.8690,0.079,1.032,0.153,0.06,-0.49,0.4,-1.14,-0.26,-0.22
2022-04-27 12:13:29.8770,0.08,1.034,0.166,0.04,-0.55,0.36,-1.17,-0.29,-0.2
2022-04-27 12:13:29.8870,0.077,1.031,0.178,0.02,-0.57,0.34,-1.21,-0.3,-0.18
2022-04-27 12:13:29.8970,0.073,1.027,0.183,0.04,-0.57,0.35,-1.25,-0.3,-0.16
2022-04-27 12:13:29.9070,0.07,1.019,0.184,0.08,-0.55,0.43,-1.26,-0.3,-0.14
2022-04-27 12:13:29.9180,0.065,1.006,0.183,0.1,-0.48,0.55,-1.24,-0.28,-0.12
2022-04-27 12:13:29.9280,0.061,0.992,0.183,0.15,-0.38,0.67,-1.18,-0.26,-0.1
2022-04-27 12:13:29.9370,0.061,0.978,0.18,0.17,-0.26,0.77,-1.09,-0.26,-0.09
2022-04-27 12:13:29.9480,0.061,0.969,0.187,0.17,-0.16,0.89,-0.99,-0.26,-0.08
2022-04-27 12:13:29.9580,0.063,0.965,0.196,0.17,-0.11,0.9,-0.91,-0.27,-0.06
2022-04-27 12:13:29.9680,0.063,0.958,0.206,0.15,-0.1,0.89,-0.83,-0.28,-0.05
2022-04-27 12:13:29.9780,0.062,0.948,0.21,0.16,-0.05,0.88,-0.76,-0.29,-0.04
2022-04-27 12:13:29.9880,0.061,0.937,0.215,0.17,0.03,0.91,-0.67,-0.31,-0.03
2022-04-27 12:13:29.9970,0.06,0.925,0.222,0.19,0.13,0.91,-0.59,-0.33,-0.03
2022-04-27 12:13:30.0070,0.059,0.915,0.23,0.21,0.23,0.89,-0.53,-0.35,-0.02
Time,0.058,0.908,0.236,0.23,0.3,0.85,-0.47,-0.36,-0.02
2022-04-27 12:13:30.0270,0.057,0.903,0.243,0.24,0.35,0.84,-0.42,-0.37,-0.03
2022-04-27 12:13:30.0370,0.053,0.9,0.246,0.27,0.38,0.81,-0.36,-0.37,-0.03
2022-04-27 12:13:30.0470,0.052,0.897,0.249,0.31,0.39,0.82,-0.3,-0.38,-0.04
2022-04-27 12:13:30.0580,0.052,0.896,0.252,0.33,0.41,0.81,-0.24,-0.39,-0.06
2022-04-27 12:13:30.0670,0.052,0.894,0.253,0.34,0.42,0.8,-0.19,-0.39,-0.07
2022-04-27 12:13:30.0760,0.052,0.894,0.252,0.34,0.42,0.81,-0.14,-0.4,-0.08
2022-04-27 12:13:30.0860,0.052,0.895,0.25,0.35,0.42,0.83,-0.09,-0.41,-0.09
2022-04-27 12:13:30.0970,0.054,0.895,0.249,0.35,0.4,0.85,-0.04,-0.43,-0.11
2022-04-27 12:13:30.1060,0.054,0.894,0.251,0.33,0.41,0.85,0.0,-0.44,-0.13
2022-04-27 12:13:30.1160,0.056,0.892,0.253,0.34,0.43,0.83,0.04,-0.45,-0.14
2022-04-27 12:13:30.1270,0.057,0.891,0.259,0.32,0.44,0.79,0.08,-0.47,-0.16
2022-04-27 12:13:30.1310,0.058,0.887,0.262,0.32,0.44,0.79,0.11,-0.49,-0.19
2022-04-27 12:13:30.1470,0.059,0.884,0.264,0.3,0.51,0.69,0.14,-0.52,-0.21
2022-04-27 12:13:30.1560,0.06,0.881,0.27,0.28,0.55,0.64,0.16,-0.53,-0.23
2022-04-27 12:13:30.1670,0.06,0.879,0.275,0.28,0.58,0.57,0.18,-0.54,-0.25
2022-04-27 12:13:30.1770,0.06,0.878,0.28,0.27,0.61,0.49,0.21,-0.56,-0.27
2022-04-27 12:13:30.1850,0.059,0.879,0.282,0.26,0.61,0.43,0.24,-0.56,-0.29
2022-04-27 12:13:30.1960,0.059,0.878,0.284,0.26,0.62,0.38,0.26,-0.57,-0.31
2022-04-27 12:13:30.2060,0.06,0.879,0.282,0.24,0.64,0.34,0.29,-0.58,-0.32
2022-04-27 12:13:30.2160,0.059,0.878,0.279,0.23,0.65,0.34,0.31,-0.6,-0.34
2022-04-27 12:13:30.2260,0.058,0.879,0.274,0.23,0.66,0.34,0.33,-0.61,-0.36
2022-04-27 12:13:30.2370,0.06,0.88,0.27,0.21,0.67,0.35,0.35,-0.63,-0.37
2022-04-27 12:13:30.2450,0.059,0.88,0.266,0.18,0.67,0.35,0.35,-0.65,-0.38
2022-04-27 12:13:30.2560,0.06,0.88,0.264,0.17,0.68,0.35,0.36,-0.68,-0.4
2022-04-27 12:13:30.2660,0.061,0.88,0.262,0.14,0.7,0.33,0.35,-0.7,-0.41
2022-04-27 12:13:30.2750,0.06,0.877,0.263,0.12,0.72,0.31,0.34,-0.72,-0.42
2022-04-27 12:13:30.2880,0.061,0.874,0.262,0.1,0.76,0.26,0.34,-0.74,-0.43
2022-04-27 12:13:30.2950,0.059,0.875,0.261,0.09,0.79,0.25,0.32,-0.76,-0.44
2022-04-27 12:13:30.3050,0.061,0.874,0.265,0.07,0.8,0.2,0.3,-0.78,-0.44
2022-04-27 12:13:30.3180,0.061,0.874,0.265,0.04,0.83,0.13,0.28,-0.79,-0.45
2022-04-27 12:13:30.3250,0.06,0.876,0.268,0.02,0.82,0.1,0.26,-0.8,-0.44
2022-04-27 12:13:30.3350,0.059,0.875,0.272,0.01,0.82,0.04,0.23,-0.8,-0.44
2022-04-27 12:13:30.3460,0.057,0.873,0.276,0.01,0.84,-0.02,0.19,-0.8,-0.44
2022-04-27 12:13:30.3550,0.055,0.872,0.28,0.01,0.86,-0.08,0.13,-0.78,-0.43
2022-04-27 12:13:30.3650,0.056,0.871,0.283,0.0,0.88,-0.14,0.08,-0.77,-0.41
2022-04-27 12:13:30.3750,0.057,0.869,0.286,-0.03,0.89,-0.18,0.02,-0.74,-0.38
2022-04-27 12:13:30.3860,0.06,0.861,0.289,-0.06,0.93,-0.2,-0.06,-0.72,-0.34
2022-04-27 12:13:30.3940,0.062,0.849,0.299,-0.11,1.02,-0.25,-0.13,-0.69,-0.3
2022-04-27 12:13:30.4040,0.061,0.846,0.312,-0.12,1.12,-0.34,-0.21,-0.66,-0.24
2022-04-27 12:13:30.4170,0.06,0.851,0.325,-0.12,1.12,-0.46,-0.28,-0.62,-0.17
2022-04-27 12:13:30.4240,0.058,0.853,0.337,-0.1,1.07,-0.55,-0.36,-0.58,-0.09
2022-04-27 12:13:30.4340,0.058,0.858,0.35,-0.08,1.03,-0.63,-0.46,-0.52,-0.0
2022-04-27 12:13:30.4440,0.06,0.872,0.364,-0.07,0.95,-0.72,-0.57,-0.45,0.12
2022-04-27 12:13:30.4550,0.064,0.889,0.377,-0.06,0.79,-0.8,-0.7,-0.37,0.25
2022-04-27 12:13:30.4650,0.067,0.921,0.392,-0.07,0.59,-0.87,-0.84,-0.28,0.39
2022-04-27 12:13:30.4740,0.071,0.985,0.402,-0.05,0.17,-0.93,-0.98,-0.21,0.52
2022-04-27 12:13:30.4840,0.071,1.077,0.407,-0.03,-0.56,-0.93,-1.13,-0.15,0.6
2022-04-27 12:13:30.4940,0.067,1.198,0.414,0.04,-1.58,-0.86,-1.32,-0.12,0.61
2022-04-27 12:13:30.5040,0.06,1.303,0.421,0.15,-2.84,-0.81,-1.52,-0.1,0.56
2022-04-27 12:13:30.5150,0.065,1.315,0.407,0.26,-3.83,-0.71,-1.63,-0.09,0.54
2022-04-27 12:13:30.5240,0.077,1.258,0.367,0.22,-3.67,-0.35,-1.57,-0.09,0.54
2022-04-27 12:13:30.5350,0.08,1.259,0.332,0.18,-3.3,0.21,-1.39,-0.1,0.54
2022-04-27 12:13:30.5450,0.08,1.192,0.329,0.2,-3.26,0.6,-1.24,-0.08,0.5
2022-04-27 12:13:30.5540,0.07,1.144,0.359,0.28,-2.61,0.65,-1.24,-0.04,0.44
2022-04-27 12:13:30.5650,0.071,1.099,0.394,0.4,-2.25,0.42,-1.3,-0.01,0.39
2022-04-27 12:13:30.5740,0.076,1.059,0.408,0.4,-1.86,0.23,-1.37,0.01,0.34
2022-04-27 12:13:30.5830,0.076,1.025,0.411,0.39,-1.55,0.26,-1.43,0.03,0.28
2022-04-27 12:13:30.5940,0.077,0.988,0.415,0.42,-1.29,0.36,-1.52,0.03,0.22
2022-04-27 12:13:30.6040,0.075,0.943,0.418,0.42,-0.97,0.45,-1.58,0.04,0.14
2022-04-27 12:13:30.6140,0.074,0.897,0.422,0.46,-0.61,0.57,-1.62,0.06,0.07
2022-04-27 12:13:30.6240,0.077,0.86,0.432,0.46,-0.24,0.66,-1.64,0.08,0.0
2022-04-27 12:13:30.6340,0.079,0.827,0.446,0.42,0.01,0.68,-1.69,0.1,-0.06
2022-04-27 12:13:30.6440,0.079,0.799,0.459,0.39,0.26,0.69,-1.76,0.13,-0.11
2022-04-27 12:13:30.6540,0.077,0.792,0.471,0.38,0.41,0.71,-1.85,0.15,-0.18
2022-04-27 12:13:30.6630,0.071,0.808,0.479,0.38,0.31,0.76,-1.93,0.16,-0.27
2022-04-27 12:13:30.6740,0.061,0.837,0.483,0.42,0.02,0.84,-2.01,0.17,-0.38
2022-04-27 12:13:30.6820,0.057,0.875,0.483,0.47,-0.41,0.98,-2.06,0.16,-0.51
2022-04-27 12:13:30.6940,0.052,0.916,0.479,0.45,-0.91,1.15,-2.07,0.15,-0.64
2022-04-27 12:13:30.7030,0.051,0.943,0.473,0.44,-1.41,1.35,-2.01,0.14,-0.77
2022-04-27 12:13:30.7130,0.048,0.943,0.474,0.38,-1.74,1.55,-1.93,0.12,-0.89
2022-04-27 12:13:30.7230,0.049,0.903,0.482,0.33,-1.74,1.68,-1.89,0.09,-0.99
2022-04-27 12:13:30.7340,0.051,0.847,0.498,0.23,-1.4,1.71,-1.87,0.08,-1.07
2022-04-27 12:13:30.7430,0.049,0.794,0.513,0.14,-0.96,1.68,-1.84,0.08,-1.13
2022-04-27 12:13:30.7530,0.05,0.752,0.519,0.07,-0.58,1.7,-1.83,0.07,-1.17
2022-04-27 12:13:30.7630,0.045,0.728,0.532,-0.03,-0.32,1.76,-1.84,0.09,-1.2
2022-04-27 12:13:30.7740,0.042,0.725,0.542,-0.07,-0.27,1.75,-1.85,0.1,-1.23
2022-04-27 12:13:30.7820,0.039,0.733,0.541,-0.13,-0.4,1.8,-1.82,0.08,-1.25
2022-04-27 12:13:30.7920,0.034,0.739,0.535,-0.18,-0.61,1.97,-1.72,0.07,-1.26
2022-04-27 12:13:30.8020,0.03,0.726,0.541,-0.22,-0.76,2.1,-1.57,0.04,-1.25
2022-04-27 12:13:30.8120,0.027,0.689,0.552,-0.27,-0.68,2.12,-1.39,0.01,-1.23
2022-04-27 12:13:30.8220,0.022,0.64,0.565,-0.31,-0.38,2.09,-1.24,-0.01,-1.21
2022-04-27 12:13:30.8320,0.014,0.594,0.588,-0.32,0.01,2.01,-1.12,-0.03,-1.17
2022-04-27 12:13:30.8420,0.011,0.55,0.598,-0.33,0.37,1.88,-1.04,-0.05,-1.13
2022-04-27 12:13:30.8530,0.006,0.515,0.609,-0.36,0.71,1.85,-0.99,-0.07,-1.08
2022-04-27 12:13:30.8620,0.003,0.477,0.619,-0.38,0.97,1.8,-0.99,-0.1,-1.03
2022-04-27 12:13:30.8720,-0.009,0.456,0.634,-0.38,1.23,1.76,-1.03,-0.1,-1.03
2022-04-27 12:13:30.8820,-0.016,0.424,0.654,-0.3,1.36,1.65,-1.11,-0.1,-1.0
2022-04-27 12:13:30.8920,-0.013,0.398,0.669,-0.34,1.59,1.54,-1.23,-0.1,-0.97
2022-04-27 12:13:30.9020,-0.013,0.4,0.691,-0.4,1.68,1.44,-1.33,-0.09,-0.91
2022-04-27 12:13:30.9130,-0.008,0.429,0.709,-0.44,1.47,1.3,-1.34,-0.1,-0.82
2022-04-27 12:13:30.9220,-0.003,0.45,0.726,-0.54,1.05,1.21,-1.24,-0.1,-0.71
2022-04-27 12:13:30.9320,-0.009,0.448,0.753,-0.6,0.81,1.09,-1.03,-0.08,-0.63
2022-04-27 12:13:30.9420,-0.015,0.433,0.789,-0.54,0.77,0.84,-0.82,-0.07,-0.55
2022-04-27 12:13:30.9520,-0.019,0.391,0.812,-0.53,0.92,0.54,-0.82,-0.07,-0.55
2022-04-27 12:13:30.9620,-0.025,0.357,0.808,-0.49,1.29,0.43,-0.65,-0.06,-0.43
2022-04-27 12:13:30.9710,-0.027,0.354,0.805,-0.46,1.5,0.5,-0.57,-0.04,-0.38
2022-04-27 12:13:30.9810,-0.026,0.381,0.798,-0.46,1.39,0.58,-0.39,-0.04,-0.31
2022-04-27 12:13:30.9910,-0.024,0.408,0.796,-0.48,1.07,0.65,-0.14,-0.06,-0.23
2022-04-27 12:13:31.0010,-0.03,0.428,0.797,-0.5,0.83,0.67,0.22,-0.05,-0.18
Time,-0.041,0.455,0.805,-0.42,0.64,0.63,0.7,-0.0,-0.15
2022-04-27 12:13:31.0250,-0.045,0.47,0.812,-0.35,0.46,0.5,1.25,0.06,-0.15
2022-04-27 12:13:31.0310,-0.053,0.478,0.822,-0.31,0.45,0.36,1.77,0.13,-0.18
2022-04-27 12:13:31.0410,-0.057,0.47,0.83,-0.27,0.56,0.17,2.19,0.19,-0.22
2022-04-27 12:13:31.0450,-0.063,0.464,0.839,-0.25,0.84,-0.04,2.53,0.24,-0.28
2022-04-27 12:13:31.0610,-0.072,0.478,0.847,-0.22,1.07,-0.27,2.86,0.29,-0.35
2022-04-27 12:13:31.0710,-0.079,0.511,0.85,-0.17,1.1,-0.52,3.17,0.34,-0.44
2022-04-27 12:13:31.0800,-0.083,0.542,0.837,-0.18,1.01,-0.72,3.46,0.39,-0.53
2022-04-27 12:13:31.0910,-0.087,0.562,0.808,-0.2,0.99,-0.76,3.71,0.42,-0.62
2022-04-27 12:13:31.1010,-0.091,0.579,0.784,-0.23,1.07,-0.71,3.92,0.46,-0.7
2022-04-27 12:13:31.1110,-0.097,0.596,0.764,-0.27,1.17,-0.78,4.12,0.49,-0.78
2022-04-27 12:13:31.1150,-0.102,0.617,0.736,-0.3,1.27,-0.86,4.32,0.54,-0.85
2022-04-27 12:13:31.1310,-0.106,0.652,0.708,-0.35,1.3,-0.9,4.54,0.56,-0.92
2022-04-27 12:13:31.1410,-0.106,0.697,0.663,-0.42,1.19,-0.96,4.76,0.53,-0.96
2022-04-27 12:13:31.1510,-0.098,0.751,0.606,-0.55,0.99,-0.85,5.0,0.47,-0.97
2022-04-27 12:13:31.1610,-0.093,0.812,0.552,-0.73,0.7,-0.72,5.25,0.37,-0.95
2022-04-27 12:13:31.1700,-0.083,0.88,0.499,-0.88,0.32,-0.63,5.46,0.25,-0.9
2022-04-27 12:13:31.1800,-0.078,0.936,0.448,-1.06,-0.12,-0.58,5.64,0.12,-0.85
2022-04-27 12:13:31.1900,-0.074,0.973,0.4,-1.18,-0.41,-0.59,5.77,-0.01,-0.78
2022-04-27 12:13:31.2000,-0.07,0.995,0.356,-1.29,-0.54,-0.64,5.85,-0.12,-0.7
2022-04-27 12:13:31.2100,-0.067,1.013,0.312,-1.38,-0.58,-0.75,5.87,-0.23,-0.61
2022-04-27 12:13:31.2210,-0.067,1.034,0.269,-1.45,-0.64,-0.85,5.83,-0.33,-0.52
2022-04-27 12:13:31.2310,-0.065,1.067,0.228,-1.49,-0.76,-0.97,5.74,-0.41,-0.41
2022-04-27 12:13:31.2400,-0.06,1.126,0.196,-1.55,-1.09,-1.11,5.55,-0.49,-0.28
2022-04-27 12:13:31.2500,-0.051,1.18,0.166,-1.63,-1.66,-1.31,5.26,-0.56,-0.13
2022-04-27 12:13:31.2620,-0.046,1.207,0.15,-1.72,-2.11,-1.52,4.89,-0.62,0.05
2022-04-27 12:13:31.2690,-0.044,1.215,0.126,-1.75,-2.33,-1.81,4.41,-0.7,0.23
2022-04-27 12:13:31.2790,-0.043,1.193,0.096,-1.74,-2.37,-1.94,3.86,-0.82,0.41
2022-04-27 12:13:31.2890,-0.046,1.123,0.077,-1.71,-2.07,-1.99,3.25,-0.92,0.55
2022-04-27 12:13:31.2990,-0.054,0.949,0.051,-1.64,-1.28,-2.08,2.66,-1.05,0.62
2022-04-27 12:13:31.3100,-0.061,0.834,0.005,-1.48,0.72,-2.0,2.13,-1.23,0.71
2022-04-27 12:13:31.3200,-0.045,0.946,-0.023,-1.43,1.04,-1.69,1.52,-1.39,0.83
2022-04-27 12:13:31.3290,-0.038,0.972,-0.015,-1.54,-0.04,-1.63,0.83,-1.49,0.97
2022-04-27 12:13:31.3390,-0.038,0.911,-0.009,-1.5,0.02,-1.76,0.13,-1.55,1.1
2022-04-27 12:13:31.3490,-0.044,0.868,-0.015,-1.43,0.66,-1.76,-0.54,-1.6,1.21
2022-04-27 12:13:31.3590,-0.054,0.865,-0.001,-1.25,1.02,-1.63,-1.2,-1.61,1.31
2022-04-27 12:13:31.3690,-0.057,0.898,0.018,-1.07,1.0,-1.63,-1.89,-1.59,1.41
2022-04-27 12:13:31.3790,-0.057,0.947,0.033,-0.94,0.67,-1.6,-2.55,-1.54,1.51
2022-04-27 12:13:31.3890,-0.055,0.991,0.034,-0.82,0.25,-1.44,-3.15,-1.46,1.62
2022-04-27 12:13:31.3990,-0.054,1.036,0.042,-0.69,-0.14,-1.11,-3.69,-1.35,1.72
2022-04-27 12:13:31.4100,-0.05,1.069,0.05,-0.55,-0.52,-0.82,-4.12,-1.24,1.8
2022-04-27 12:13:31.4190,-0.048,1.091,0.046,-0.41,-0.79,-0.45,-4.47,-1.11,1.84
2022-04-27 12:13:31.4290,-0.057,1.111,0.046,-0.23,-0.98,0.04,-4.72,-0.94,1.86
2022-04-27 12:13:31.4400,-0.053,1.13,0.059,0.05,-1.2,0.48,-4.88,-0.82,1.84
2022-04-27 12:13:31.4490,-0.044,1.141,0.069,0.16,-1.43,0.83,-4.96,-0.77,1.81
2022-04-27 12:13:31.4590,-0.041,1.146,0.087,0.26,-1.59,1.2,-4.86,-0.68,1.72
2022-04-27 12:13:31.4690,-0.042,1.142,0.12,0.43,-1.74,1.44,-4.74,-0.58,1.62
2022-04-27 12:13:31.4780,-0.041,1.121,0.14,0.59,-1.77,1.58,-4.56,-0.51,1.48
2022-04-27 12:13:31.4880,-0.041,1.089,0.163,0.74,-1.68,1.8,-4.32,-0.43,1.33
2022-04-27 12:13:31.4990,-0.04,1.047,0.182,0.87,-1.49,1.97,-4.03,-0.35,1.17
2022-04-27 12:13:31.5090,-0.038,1.004,0.199,0.96,-1.22,2.15,-3.74,-0.29,0.99
2022-04-27 12:13:31.5190,-0.035,0.968,0.218,1.04,-0.96,2.28,-3.41,-0.24,0.82
2022-04-27 12:13:31.5290,-0.033,0.934,0.228,1.08,-0.77,2.4,-3.41,-0.24,0.82
2022-04-27 12:13:31.5390,-0.03,0.906,0.233,1.13,-0.6,2.58,-2.58,-0.18,0.46
2022-04-27 12:13:31.5480,-0.025,0.882,0.241,1.14,-0.46,2.72,-2.11,-0.18,0.31
2022-04-27 12:13:31.5580,-0.019,0.86,0.257,1.12,-0.33,2.79,-1.61,-0.2,0.17
2022-04-27 12:13:31.5680,-0.011,0.839,0.276,1.08,-0.19,2.75,-1.12,-0.24,0.07
2022-04-27 12:13:31.5780,-0.0,0.819,0.302,1.01,-0.05,2.62,-0.66,-0.3,0.01
2022-04-27 12:13:31.5890,0.016,0.808,0.329,0.91,0.12,2.41,-0.66,-0.3,0.01
2022-04-27 12:13:31.5980,0.028,0.819,0.359,0.77,0.15,2.14,0.24,-0.48,-0.02
2022-04-27 12:13:31.6190,0.035,0.82,0.4,0.65,0.12,1.31,0.66,-0.54,0.01
2022-04-27 12:13:31.6190,0.046,0.821,0.439,0.65,0.12,1.31,1.02,-0.58,0.07
2022-04-27 12:13:31.6260,0.054,0.817,0.472,0.58,0.16,0.84,1.3,-0.61,0.16
2022-04-27 12:13:31.6370,0.059,0.815,0.492,0.56,0.3,0.44,1.51,-0.64,0.25
2022-04-27 12:13:31.6480,0.067,0.848,0.503,0.57,0.31,0.13,1.69,-0.69,0.37
2022-04-27 12:13:31.6600,0.076,0.892,0.506,0.55,0.01,-0.11,1.87,-0.72,0.52
2022-04-27 12:13:31.6690,0.085,0.947,0.503,0.54,-0.34,-0.3,2.05,-0.77,0.68
2022-04-27 12:13:31.6770,0.094,1.022,0.497,0.55,-0.86,-0.45,2.25,-0.82,0.85
2022-04-27 12:13:31.6870,0.103,1.098,0.487,0.58,-1.52,-0.59,2.43,-0.87,1.04
2022-04-27 12:13:31.6980,0.108,1.168,0.478,0.63,-2.18,-0.71,2.54,-0.89,1.21
2022-04-27 12:13:31.7080,0.105,1.213,0.469,0.74,-2.74,-0.87,2.57,-0.84,1.35
2022-04-27 12:13:31.7170,0.098,1.232,0.447,0.93,-3.04,-0.99,2.5,-0.74,1.46
2022-04-27 12:13:31.7280,0.09,1.231,0.414,1.16,-3.13,-0.99,2.39,-0.62,1.52
2022-04-27 12:13:31.7360,0.077,1.211,0.354,1.4,-3.01,-0.83,2.25,-0.46,1.55
2022-04-27 12:13:31.7410,0.066,1.195,0.296,1.68,-2.78,-0.42,2.25,-0.46,1.55
2022-04-27 12:13:31.7570,0.054,1.182,0.247,1.94,-2.62,-0.07,1.85,-0.04,1.49
2022-04-27 12:13:31.7660,0.045,1.154,0.201,2.18,-2.48,0.25,1.56,0.19,1.43
2022-04-27 12:13:31.7770,0.037,1.09,0.159,2.38,-2.12,0.56,1.22,0.41,1.33
2022-04-27 12:13:31.7860,0.025,0.996,0.122,2.58,-1.42,0.87,0.86,0.6,1.22
2022-04-27 12:13:31.7970,0.017,0.89,0.09,2.78,-0.47,1.19,0.51,0.76,1.1
2022-04-27 12:13:31.8070,0.009,0.795,0.084,2.94,0.53,1.43,0.16,0.87,0.97
2022-04-27 12:13:31.8170,0.004,0.726,0.077,3.07,1.4,1.47,-0.16,0.93,0.83
2022-04-27 12:13:31.8270,-0.0,0.687,0.074,3.17,1.95,1.61,-0.49,0.99,0.69
2022-04-27 12:13:31.8310,-0.003,0.672,0.074,3.24,2.25,1.69,-0.8,1.04,0.54
2022-04-27 12:13:31.8470,-0.005,0.686,0.073,3.28,2.3,1.82,-1.1,1.11,0.38
2022-04-27 12:13:31.8570,-0.006,0.745,0.078,3.3,2.02,1.96,-1.4,1.2,0.2
2022-04-27 12:13:31.8660,-0.006,0.832,0.088,3.25,0.37,2.16,-1.66,1.33,0.01
Time,-0.005,0.916,0.1,3.25,0.37,2.16,-1.89,1.51,-0.19
2022-04-27 12:13:31.8860,-0.001,0.976,0.118,3.16,-0.46,2.25,-2.07,1.75,-0.39
2022-04-27 12:13:31.8960,0.011,0.999,0.165,3.0,-1.02,2.28,-2.24,2.04,-0.55
2022-04-27 12:13:31.9060,0.034,0.961,0.218,2.72,-1.2,1.97,-2.33,2.36,-0.65
2022-04-27 12:13:31.9160,0.054,0.887,0.221,2.35,-0.73,1.86,-2.32,2.69,-0.72
2022-04-27 12:13:31.9260,0.07,0.857,0.235,1.99,-0.14,2.11,-2.24,2.99,-0.75
2022-04-27 12:13:31.9370,0.085,0.874,0.243,1.64,-0.06,2.21,-2.05,3.24,-0.74
2022-04-27 12:13:31.9450,0.101,0.911,0.231,1.28,-0.38,2.43,-1.75,3.44,-0.65
2022-04-27 12:13:31.9490,0.117,0.937,0.25,0.9,-0.81,2.73,-1.42,3.56,-0.49
2022-04-27 12:13:31.9650,0.127,0.934,0.316,0.53,-1.08,2.61,-1.16,3.49,-0.26
2022-04-27 12:13:31.9750,0.13,0.895,0.402,0.26,-1.0,2.0,-0.88,3.34,0.02
2022-04-27 12:13:31.9850,0.133,0.86,0.45,0.07,-0.62,1.32,-0.55,3.11,0.35
2022-04-27 12:13:31.9950,0.137,0.863,0.479,-0.1,-0.4,1.03,-0.19,2.85,0.74
2022-04-27 12:13:32.0050,0.139,0.88,0.524,-0.22,-0.51,0.76,0.18,2.61,1.16
2022-04-27 12:13:32.0160,0.143,0.905,0.582,-0.28,-0.68,0.27,0.56,2.37,1.6
2022-04-27 12:13:32.0260,0.139,0.949,0.612,-0.3,-0.96,-0.28,0.97,2.15,2.03
2022-04-27 12:13:32.0360,0.126,0.985,0.636,-0.19,-1.35,-0.61,1.47,2.11,2.41
2022-04-27 12:13:32.0460,0.111,1.015,0.644,0.04,-1.64,-0.9,1.98,2.11,2.73
2022-04-27 12:13:32.0560,0.087,1.046,0.652,0.32,-1.83,-1.12,2.5,2.24,2.94
2022-04-27 12:13:32.0640,0.067,1.082,0.639,0.68,-2.08,-1.35,2.94,2.43,3.08
2022-04-27 12:13:32.0750,0.046,1.1,0.636,1.01,-2.3,-1.42,3.32,2.65,3.15
2022-04-27 12:13:32.0850,0.031,1.092,0.615,1.34,-2.3,-1.63,3.65,2.95,3.15
2022-04-27 12:13:32.0940,0.016,1.079,0.589,1.62,-2.09,-1.66,3.96,3.26,3.09
2022-04-27 12:13:32.0990,0.003,1.063,0.524,1.89,-1.84,-1.62,4.24,3.55,3.0
2022-04-27 12:13:32.1140,-0.004,1.045,0.445,2.12,-1.58,-1.21,4.53,3.91,2.89
2022-04-27 12:13:32.1250,-0.0,1.036,0.37,2.26,-1.3,-0.75,4.79,4.33,2.77
2022-04-27 12:13:32.1350,-0.004,1.042,0.296,2.34,-1.17,-0.37,5.08,4.81,2.64
2022-04-27 12:13:32.1450,-0.016,1.053,0.203,2.49,-1.15,0.05,5.31,5.29,2.49
2022-04-27 12:13:32.1550,-0.027,1.053,0.186,2.7,-1.17,0.56,5.43,5.75,2.32
2022-04-27 12:13:32.1650,-0.034,1.098,0.223,2.88,-1.18,0.12,5.42,6.12,2.15
2022-04-27 12:13:32.1750,-0.032,1.067,0.206,3.0,-1.51,-0.5,5.34,6.43,1.99
2022-04-27 12:13:32.1850,-0.028,1.029,0.183,3.05,-1.03,-0.54,5.2,6.68,1.83
2022-04-27 12:13:32.1950,-0.03,1.033,0.167,3.1,-0.75,-0.65,4.94,6.83,1.62
2022-04-27 12:13:32.1980,-0.032,1.064,0.135,3.2,-0.87,-0.73,4.6,6.92,1.36
2022-04-27 12:13:32.2140,-0.035,1.113,0.108,3.3,-1.23,-0.6,4.18,6.97,1.04
2022-04-27 12:13:32.2240,-0.038,1.138,0.08,3.37,-1.7,-0.52,3.68,6.96,0.67
Time,-0.037,1.125,0.075,3.42,-1.85,-0.4,3.13,6.87,0.26
2022-04-27 12:13:32.2450,-0.031,1.096,0.075,3.39,-1.65,-0.46,2.58,6.72,-0.15
2022-04-27 12:13:32.2540,-0.021,1.072,0.07,3.27,-1.36,-0.46,2.01,6.54,-0.56
2022-04-27 12:13:32.2640,-0.009,1.048,0.076,3.1,-1.1,-0.41,1.43,6.36,-0.96
2022-04-27 12:13:32.2730,0.005,1.06,0.089,2.85,-0.86,-0.43,0.83,6.2,-1.35
2022-04-27 12:13:32.2830,0.019,1.106,0.097,2.56,-1.08,-0.46,0.23,6.04,-1.7
2022-04-27 12:13:32.2940,0.05,1.125,0.101,2.19,-1.45,-0.37,-0.3,5.96,-2.01
2022-04-27 12:13:32.3040,0.066,1.134,0.088,1.66,-1.54,-0.23,-0.73,5.89,-2.28
2022-04-27 12:13:32.3150,0.085,1.125,0.064,0.75,-1.42,0.59,-1.07,5.82,-2.46
2022-04-27 12:13:32.3270,0.12,1.109,0.054,0.75,-1.42,0.59,-1.35,5.8,-2.48
2022-04-27 12:13:32.3330,0.144,1.102,0.048,0.05,-1.24,0.87,-1.55,5.8,-2.45
2022-04-27 12:13:32.3430,0.147,1.105,0.021,-0.42,-1.19,1.21,-1.63,5.76,-2.4
2022-04-27 12:13:32.3550,0.163,1.098,-0.015,-0.78,-1.24,1.69,-1.58,5.71,-2.22
2022-04-27 12:13:32.3630,0.195,1.087,-0.041,-1.3,-1.14,2.23,-1.45,5.65,-1.86
2022-04-27 12:13:32.3760,0.219,1.079,-0.055,-1.9,-1.09,2.59,-1.27,5.59,-1.4
2022-04-27 12:13:32.3830,0.22,1.051,-0.068,-2.33,-1.0,2.84,-1.07,5.5,-0.9
2022-04-27 12:13:32.3930,0.219,0.987,-0.082,-2.5,-0.67,3.04,-0.85,5.38,-0.35
2022-04-27 12:13:32.4040,0.222,0.908,-0.094,-2.65,0.0,3.24,-0.61,5.25,0.27
2022-04-27 12:13:32.4140,0.22,0.851,-0.096,-2.76,0.76,3.36,-0.42,5.13,0.88
2022-04-27 12:13:32.4220,0.201,0.828,-0.089,-2.74,1.2,3.36,-0.29,5.02,1.41
2022-04-27 12:13:32.4340,0.185,0.799,-0.084,-2.49,1.47,3.26,-0.19,4.91,1.95
2022-04-27 12:13:32.4430,0.183,0.78,-0.077,-2.33,1.63,3.23,-0.19,4.91,1.95
2022-04-27 12:13:32.4520,0.171,0.784,-0.089,-2.13,2.04,3.13,-0.03,4.73,2.85
2022-04-27 12:13:32.4630,0.148,0.799,-0.085,-1.83,1.8,3.26,0.07,4.65,3.22
2022-04-27 12:13:32.4720,0.142,0.862,-0.086,-1.44,1.54,3.2,0.14,4.58,3.54
2022-04-27 12:13:32.4820,0.137,0.957,-0.09,-1.16,0.84,3.22,0.22,4.51,3.82
2022-04-27 12:13:32.4930,0.128,1.066,-0.096,-0.84,-0.13,3.25,0.32,4.45,4.01
2022-04-27 12:13:32.5030,0.108,1.176,-0.104,-0.45,-1.26,3.32,0.46,4.41,4.1
2022-04-27 12:13:32.5130,0.086,1.226,-0.106,0.04,-2.27,3.37,0.59,4.36,4.07
2022-04-27 12:13:32.5230,0.058,1.246,-0.105,0.54,-2.65,3.39,0.67,4.32,3.92
2022-04-27 12:13:32.5330,0.03,1.224,-0.083,1.08,-2.85,3.33,0.69,4.31,3.67
2022-04-27 12:13:32.5430,0.007,1.166,-0.072,1.58,-2.53,3.11,0.76,4.32,3.33
2022-04-27 12:13:32.5530,-0.011,1.127,-0.086,2.0,-2.03,3.09,0.88,4.31,2.95
2022-04-27 12:13:32.5630,-0.026,1.084,-0.082,2.32,-1.7,3.22,0.98,4.32,2.52
2022-04-27 12:13:32.5720,-0.04,1.05,-0.073,2.58,-1.31,3.14,1.08,4.32,2.06
2022-04-27 12:13:32.5820,-0.05,1.035,-0.071,2.79,-1.03,3.07,1.2,4.33,1.57
2022-04-27 12:13:32.5920,-0.055,1.035,-0.07,2.91,-0.94,3.06,1.32,4.33,1.08
2022-04-27 12:13:32.6020,-0.057,1.035,-0.068,2.94,-0.95,3.02,1.48,4.32,0.6
2022-04-27 12:13:32.6120,-0.053,1.025,-0.07,2.88,-0.89,2.98,1.62,4.3,0.17
2022-04-27 12:13:32.6230,-0.044,1.006,-0.062,2.74,-0.75,2.92,1.75,4.27,-0.21
Time,-0.031,0.965,-0.057,2.52,-0.47,2.77,1.87,4.24,-0.51
2022-04-27 12:13:32.6420,-0.015,0.918,-0.051,2.25,0.04,2.64,1.95,4.19,-0.73
2022-04-27 12:13:32.6520,0.005,0.927,-0.042,1.91,0.46,2.47,2.0,4.14,-0.91
2022-04-27 12:13:32.6630,0.013,0.946,-0.034,1.58,0.3,2.25,2.0,4.09,-1.03
2022-04-27 12:13:32.6700,0.026,0.915,-0.021,1.33,0.3,2.06,1.95,4.04,-1.08
2022-04-27 12:13:32.6810,0.041,0.886,-0.014,1.02,0.69,1.8,1.88,4.0,-1.05
2022-04-27 12:13:32.6910,0.053,0.867,-0.008,0.71,0.99,1.61,1.75,3.96,-0.97
2022-04-27 12:13:32.7010,0.061,0.861,0.009,0.46,1.18,1.41,1.55,3.93,-0.86
2022-04-27 12:13:32.7120,0.068,0.854,0.018,0.26,1.24,1.13,1.32,3.91,-0.71
2022-04-27 12:13:32.7220,0.079,0.832,0.023,0.07,1.37,1.0,1.05,3.91,-0.53
2022-04-27 12:13:32.7320,0.081,0.806,0.03,-0.12,1.62,0.85,0.78,3.91,-0.36
2022-04-27 12:13:32.7420,0.083,0.788,0.024,-0.19,1.87,0.78,0.5,3.9,-0.17
2022-04-27 12:13:32.7540,0.087,0.786,0.025,-0.28,2.04,0.82,0.23,3.9,0.03
2022-04-27 12:13:32.7600,0.094,0.785,0.025,-0.36,2.02,0.81,-0.11,3.91,0.22
2022-04-27 12:13:32.7700,0.089,0.787,0.035,-0.42,2.01,0.8,-0.4,3.91,0.38
2022-04-27 12:13:32.7800,0.084,0.777,0.016,-0.37,2.04,0.85,-0.66,3.9,0.51
2022-04-27 12:13:32.7900,0.085,0.776,0.002,-0.32,2.09,1.12,-0.85,3.87,0.65
2022-04-27 12:13:32.8010,0.086,0.813,-0.008,-0.32,2.01,1.36,-1.01,3.85,0.77
2022-04-27 12:13:32.8110,0.084,0.873,-0.017,-0.3,1.58,1.57,-1.16,3.81,0.86
2022-04-27 12:13:32.8210,0.077,0.923,-0.024,-0.25,0.96,1.78,-1.27,3.76,0.91
2022-04-27 12:13:32.8320,0.071,0.964,-0.039,-0.15,0.46,2.01,-1.29,3.69,0.95
2022-04-27 12:13:32.8410,0.068,1.013,-0.059,-0.08,0.02,2.33,-1.23,3.62,0.96
2022-04-27 12:13:32.8520,0.061,1.053,-0.078,-0.02,-0.47,2.66,-1.08,3.54,0.94
2022-04-27 12:13:32.8620,0.05,1.073,-0.095,0.08,-0.86,2.96,-0.85,3.46,0.89
2022-04-27 12:13:32.8700,0.042,1.059,-0.109,0.19,-0.98,3.22,-0.55,3.39,0.84
2022-04-27 12:13:32.8800,0.038,1.041,-0.117,0.26,-0.86,3.41,-0.2,3.32,0.79
2022-04-27 12:13:32.8910,0.032,1.019,-0.123,0.29,-0.65,3.52,-0.2,3.32,0.79
2022-04-27 12:13:32.9010,0.025,1.022,-0.129,0.35,-0.47,3.56,0.61,3.21,0.66
2022-04-27 12:13:32.9110,0.02,1.057,-0.136,0.39,-0.59,3.58,1.07,3.16,0.59
2022-04-27 12:13:32.9200,0.015,1.09,-0.139,0.43,-0.91,3.55,1.53,3.11,0.53
2022-04-27 12:13:32.9310,0.011,1.13,-0.135,0.46,-1.22,3.42,1.96,3.07,0.47
2022-04-27 12:13:32.9400,0.009,1.15,-0.126,0.48,-1.56,3.19,2.33,3.02,0.41
2022-04-27 12:13:32.9520,0.007,0.997,-0.096,0.49,-1.61,2.88,2.6,2.98,0.38
2022-04-27 12:13:32.9610,0.005,0.936,-0.087,0.5,0.47,2.32,2.68,2.94,0.37
2022-04-27 12:13:32.9680,0.002,0.574,-0.039,0.5,0.93,1.96,2.85,2.92,0.36
2022-04-27 12:13:32.9790,0.003,0.756,-0.065,0.55,4.48,1.36,2.85,2.92,0.36
2022-04-27 12:13:32.9900,0.009,0.895,-0.024,0.52,1.58,1.25,2.74,2.83,0.37
2022-04-27 12:13:32.9990,0.011,0.816,-0.023,0.49,1.23,0.62,2.74,2.83,0.37
2022-04-27 12:13:33.0100,0.004,0.8,-0.022,0.53,1.8,0.44,2.55,2.74,0.34
2022-04-27 12:13:33.0210,0.01,0.698,-0.013,0.6,2.14,0.16,2.4,2.71,0.35
2022-04-27 12:13:33.0290,0.008,0.574,0.01,0.58,3.17,-0.15,2.16,2.68,0.35
2022-04-27 12:13:33.0400,0.004,0.397,0.007,0.67,4.68,-0.58,2.02,2.65,0.35
2022-04-27 12:13:33.0510,0.03,0.974,-0.01,0.72,5.76,-0.6,1.58,2.52,0.49
2022-04-27 12:13:33.0600,0.066,2.188,0.037,0.31,-3.45,-0.68,0.68,2.38,0.27
2022-04-27 12:13:33.0690,-0.005,2.058,0.16,0.47,-12.55,-1.32,-0.56,2.28,0.06
2022-04-27 12:13:33.0790,-0.018,1.787,0.157,0.91,-9.33,-2.39,-1.48,2.17,-0.34
2022-04-27 12:13:33.0890,-0.003,1.663,0.074,1.14,-7.74,-1.75,-2.02,2.1,-0.44
2022-04-27 12:13:33.1050,0.04,1.202,0.021,0.63,-5.51,-0.81,-2.32,2.11,-0.56
2022-04-27 12:13:33.1100,0.025,0.897,0.012,0.44,-1.12,-0.16,-2.41,2.07,-0.57
2022-04-27 12:13:33.1190,0.051,0.806,-0.047,0.4,1.49,0.28,-2.33,2.06,-0.6
2022-04-27 12:13:33.1290,0.032,0.974,-0.069,0.17,1.58,1.04,-2.08,2.01,-0.65
2022-04-27 12:13:33.1390,0.056,1.12,-0.114,0.26,-0.24,1.49,-1.79,1.93,-0.59
2022-04-27 12:13:33.1500,0.079,1.217,-0.095,-0.13,-1.49,2.04,-1.58,1.89,-0.43
2022-04-27 12:13:33.1580,0.094,1.254,-0.09,-0.37,-2.38,1.91,-1.3,1.83,-0.22
2022-04-27 12:13:33.1690,0.095,1.198,-0.127,-0.52,-2.51,2.12,-0.82,1.74,-0.0
2022-04-27 12:13:33.1780,0.09,1.056,-0.16,-0.53,-1.76,2.6,-0.3,1.64,0.22
2022-04-27 12:13:33.1880,0.076,0.925,-0.15,-0.46,-0.28,2.84,0.14,1.56,0.4
2022-04-27 12:13:33.2020,0.05,0.757,-0.109,-0.27,0.98,2.65,0.42,1.51,0.51
2022-04-27 12:13:33.2080,0.037,0.631,-0.085,0.02,2.76,2.17,0.7,1.47,0.61
2022-04-27 12:13:33.2180,0.04,0.76,-0.097,0.13,3.38,2.01,0.97,1.43,0.71
2022-04-27 12:13:33.2290,0.034,0.818,-0.082,0.17,1.95,2.0,1.16,1.42,0.78
2022-04-27 12:13:33.2390,0.022,0.708,-0.067,0.31,1.98,1.67,1.42,1.42,0.82
2022-04-27 12:13:33.2480,0.015,0.942,-0.101,0.49,2.58,1.53,1.79,1.41,0.79
2022-04-27 12:13:33.2580,0.002,1.183,-0.114,0.63,-0.24,1.68,2.26,1.42,0.67
2022-04-27 12:13:33.2690,-0.021,1.453,-0.14,0.83,-2.38,1.58,2.7,1.39,0.46
2022-04-27 12:13:33.2790,-0.014,1.548,-0.099,1.08,-5.05,1.54,2.72,1.34,0.35
2022-04-27 12:13:33.2890,0.002,1.381,0.009,0.93,-5.21,0.65,2.33,1.34,0.26
2022-04-27 12:13:33.2980,-0.007,1.01,0.049,0.9,-2.87,-0.61,2.05,1.31,0.18
2022-04-27 12:13:33.3080,-0.003,0.96,0.009,0.99,0.28,-0.83,1.75,1.25,0.09
2022-04-27 12:13:33.3180,-0.01,1.011,0.026,0.96,0.19,-0.71,1.43,1.21,-0.06
2022-04-27 12:13:33.3280,-0.022,1.087,0.022,1.06,-0.34,-1.02,1.13,1.14,-0.26
2022-04-27 12:13:33.3380,-0.018,1.162,0.018,1.13,-1.12,-0.99,0.69,1.05,-0.43
2022-04-27 12:13:33.3490,-0.004,1.258,0.066,1.01,-1.9,-1.12,-0.02,0.99,-0.56
2022-04-27 12:13:33.3590,0.008,1.258,0.115,0.84,-2.72,-1.64,-0.77,0.97,-0.65
2022-04-27 12:13:33.3670,0.019,1.173,0.102,0.65,-2.46,-1.87,-1.45,0.94,-0.71
2022-04-27 12:13:33.3780,0.025,1.069,0.086,0.5,-1.46,-1.53,-2.02,0.94,-0.73
2022-04-27 12:13:33.3880,0.037,1.001,0.063,0.37,-0.5,-1.16,-2.45,0.96,-0.71
2022-04-27 12:13:33.3980,0.044,0.972,0.044,0.18,0.07,-0.66,-2.79,0.98,-0.68
Time,0.049,0.97,0.025,0.07,0.28,-0.21,-3.04,0.99,-0.62
2022-04-27 12:13:33.4180,0.054,0.997,0.01,-0.05,0.23,0.28,-3.23,1.01,-0.55
2022-04-27 12:13:33.4270,0.059,1.049,-0.006,-0.15,-0.13,0.74,-3.33,1.01,-0.45
2022-04-27 12:13:33.4380,0.065,1.121,-0.03,-0.26,-0.72,1.24,-3.33,1.0,-0.34
2022-04-27 12:13:33.4470,0.068,1.2,-0.059,-0.35,-1.5,1.81,-3.16,0.97,-0.22
2022-04-27 12:13:33.4570,0.072,1.287,-0.1,-0.41,-2.35,2.43,-2.8,0.93,-0.08
2022-04-27 12:13:33.4680,0.072,1.288,-0.135,-0.48,-3.14,3.08,-2.29,0.88,0.06
2022-04-27 12:13:33.4770,0.066,1.206,-0.159,-0.47,-2.92,3.61,-1.68,0.81,0.19
2022-04-27 12:13:33.4870,0.061,1.139,-0.177,-0.41,-2.14,3.98,-1.01,0.75,0.31
2022-04-27 12:13:33.4970,0.049,1.059,-0.173,-0.33,-1.5,4.19,-0.36,0.7,0.39
2022-04-27 12:13:33.5080,0.036,0.976,-0.168,-0.18,-0.7,4.14,0.28,0.66,0.45
2022-04-27 12:13:33.5170,0.029,0.907,-0.155,-0.04,0.12,4.05,0.86,0.64,0.49
2022-04-27 12:13:33.5280,0.022,0.887,-0.143,0.06,0.73,3.82,1.42,0.63,0.5
2022-04-27 12:13:33.5370,0.013,0.937,-0.142,0.16,0.78,3.59,1.97,0.63,0.48
2022-04-27 12:13:33.5470,0.004,0.981,-0.138,0.28,0.29,3.38,2.55,0.64,0.43
2022-04-27 12:13:33.5570,-0.001,1.049,-0.133,0.39,-0.21,3.09,3.06,0.65,0.37
2022-04-27 12:13:33.5670,-0.005,1.137,-0.123,0.46,-0.78,2.71,3.49,0.65,0.28
2022-04-27 12:13:33.5770,-0.008,1.185,-0.103,0.51,-1.59,2.26,3.81,0.64,0.16
2022-04-27 12:13:33.5870,-0.013,1.195,-0.082,0.55,-1.92,1.68,4.04,0.62,0.04
2022-04-27 12:13:33.5970,-0.013,1.144,-0.06,0.6,-1.86,1.09,4.11,0.58,-0.07
2022-04-27 12:13:33.6070,-0.009,1.045,-0.029,0.56,-1.24,0.45,4.06,0.55,-0.17
2022-04-27 12:13:33.6160,-0.007,1.01,-0.007,0.52,-0.29,-0.24,3.92,0.49,-0.25
2022-04-27 12:13:33.6260,-0.008,0.991,0.005,0.47,-0.08,-0.79,3.67,0.43,-0.36
2022-04-27 12:13:33.6370,-0.014,0.993,0.023,0.47,0.01,-1.27,3.36,0.35,-0.5
2022-04-27 12:13:33.6460,-0.011,1.052,0.036,0.48,-0.21,-1.74,2.95,0.27,-0.62
2022-04-27 12:13:33.6560,-0.004,1.111,0.059,0.35,-0.76,-2.14,2.32,0.18,-0.73
2022-04-27 12:13:33.6650,0.005,1.185,0.097,0.22,-1.49,-2.66,1.62,0.1,-0.83
2022-04-27 12:13:33.6750,0.012,1.245,0.104,0.05,-2.2,-3.08,0.83,0.02,-0.91
2022-04-27 12:13:33.6860,0.019,1.253,0.112,-0.09,-2.73,-3.2,0.02,-0.04,-0.94
2022-04-27 12:13:33.6960,0.031,1.206,0.12,-0.28,-2.62,-3.25,-0.74,-0.06,-0.96
2022-04-27 12:13:33.7060,0.035,1.169,0.1,-0.45,-2.13,-3.22,-1.41,-0.07,-0.93
2022-04-27 12:13:33.7160,0.043,1.153,0.079,-0.62,-1.79,-2.83,-1.96,-0.07,-0.9
2022-04-27 12:13:33.7260,0.047,1.18,0.053,-0.75,-1.67,-2.43,-2.37,-0.06,-0.84
2022-04-27 12:13:33.7360,0.053,1.243,0.027,-0.88,-2.03,-1.91,-2.69,-0.07,-0.75
2022-04-27 12:13:33.7460,0.061,1.297,0.006,-1.01,-2.63,-1.42,-2.89,-0.08,-0.63
2022-04-27 12:13:33.7560,0.065,1.33,-0.02,-1.14,-3.07,-0.92,-2.96,-0.09,-0.5
2022-04-27 12:13:33.7660,0.067,1.343,-0.055,-1.22,-3.33,-0.36,-2.85,-0.13,-0.35
2022-04-27 12:13:33.7750,0.067,1.329,-0.091,-1.26,-3.39,0.27,-2.56,-0.18,-0.2
2022-04-27 12:13:33.7850,0.067,1.289,-0.122,-1.28,-3.17,0.86,-2.16,-0.24,-0.05
2022-04-27 12:13:33.7950,0.066,1.248,-0.14,-1.28,-2.75,1.32,-1.65,-0.31,0.11
2022-04-27 12:13:33.8050,0.063,1.218,-0.159,-1.25,-2.38,1.65,-1.07,-0.38,0.25
2022-04-27 12:13:33.8160,0.053,1.184,-0.171,-1.18,-2.09,1.92,-0.41,-0.45,0.35
2022-04-27 12:13:33.8260,0.045,1.142,-0.18,-1.04,-1.74,2.05,0.26,-0.51,0.44
2022-04-27 12:13:33.8360,0.038,1.104,-0.171,-0.92,-1.32,2.08,0.86,-0.55,0.49
2022-04-27 12:13:33.8450,0.032,1.071,-0.151,-0.8,-0.95,1.84,1.41,-0.58,0.51
2022-04-27 12:13:33.8550,0.024,1.046,-0.139,-0.69,-0.64,1.51,1.91,-0.6,0.51
2022-04-27 12:13:33.8640,0.02,1.038,-0.129,-0.57,-0.43,1.22,2.35,-0.62,0.48
2022-04-27 12:13:33.8740,0.016,1.046,-0.113,-0.49,-0.4,0.88,2.73,-0.64,0.44
2022-04-27 12:13:33.8850,0.016,1.061,-0.095,-0.42,-0.51,0.43,2.98,-0.66,0.4
2022-04-27 12:13:33.8950,0.016,1.074,-0.068,-0.39,-0.69,-0.04,3.09,-0.68,0.35
2022-04-27 12:13:33.9050,0.014,1.076,-0.04,-0.36,-0.82,-0.63,3.09,-0.7,0.29
2022-04-27 12:13:33.9150,0.011,1.071,-0.022,-0.32,-0.86,-1.17,2.99,-0.74,0.21
2022-04-27 12:13:33.9250,0.009,1.046,-0.006,-0.28,-0.83,-1.63,2.81,-0.78,0.14
2022-04-27 12:13:33.9340,0.01,1.009,0.011,-0.28,-0.59,-2.04,2.54,-0.83,0.07
2022-04-27 12:13:33.9450,0.01,0.964,0.029,-0.31,-0.27,-2.44,2.19,-0.88,-0.0
2022-04-27 12:13:33.9520,0.008,0.905,0.041,-0.32,0.16,-2.8,1.78,-0.94,-0.07
2022-04-27 12:13:33.9630,0.006,0.848,0.049,-0.33,0.71,-3.07,1.35,-0.99,-0.15
2022-04-27 12:13:33.9740,0.004,0.808,0.053,-0.35,1.2,-3.25,0.9,-1.05,-0.22
2022-04-27 12:13:33.9830,0.003,0.788,0.057,-0.38,1.53,-3.35,0.42,-1.1,-0.3
2022-04-27 12:13:33.9930,0.002,0.786,0.061,-0.44,1.67,-3.41,-0.08,-1.15,-0.37
2022-04-27 12:13:34.0050,0.001,0.8,0.063,-0.49,1.66,-3.43,-0.59,-1.21,-0.44
2022-04-27 12:13:34.0140,0.0,0.832,0.064,-0.56,1.49,-3.37,-1.11,-1.25,-0.51
2022-04-27 12:13:34.0230,0.001,0.862,0.061,-0.64,1.18,-3.24,-1.61,-1.3,-0.58
2022-04-27 12:13:34.0370,0.001,0.87,0.053,-0.74,0.97,-3.03,-2.06,-1.34,-0.63
2022-04-27 12:13:34.0450,0.003,0.864,0.042,-0.83,0.99,-2.73,-2.45,-1.36,-0.66
2022-04-27 12:13:34.0530,0.009,0.867,0.027,-0.95,1.09,-2.36,-2.76,-1.38,-0.67
2022-04-27 12:13:34.0650,0.012,0.895,0.012,-1.1,1.06,-1.93,-2.99,-1.39,-0.66
2022-04-27 12:13:34.0740,0.014,0.954,-0.004,-1.2,0.75,-1.48,-3.15,-1.41,-0.64
2022-04-27 12:13:34.0900,0.019,1.027,-0.021,-1.31,0.14,-0.99,-3.23,-1.42,-0.62
2022-04-27 12:13:34.0940,0.02,1.087,-0.04,-1.42,-0.54,-0.49,-3.22,-1.44,-0.59
2022-04-27 12:13:34.1030,0.023,1.119,-0.058,-1.5,-1.05,0.02,-3.11,-1.46,-0.56
2022-04-27 12:13:34.1130,0.022,1.131,-0.077,-1.58,-1.31,0.52,-3.11,-1.46,-0.56
2022-04-27 12:13:34.1230,0.023,1.12,-0.1,-1.62,-1.39,1.0,-2.58,-1.51,-0.52
2022-04-27 12:13:34.1330,0.021,1.073,-0.116,-1.67,-1.21,1.48,-2.19,-1.53,-0.5
2022-04-27 12:13:34.1440,0.019,1.014,-0.126,-1.69,-0.72,1.85,-1.76,-1.57,-0.5
2022-04-27 12:13:34.1530,0.015,0.967,-0.129,-1.7,-0.17,2.11,-1.32,-1.58,-0.54
2022-04-27 12:13:34.1620,-0.487,1.044,-0.121,-1.54,0.19,2.25,-0.9,-1.41,-1.17
2022-04-27 12:13:34.1720,-0.939,1.095,-0.141,5.68,-1.11,2.26,-0.5,-2.1,-1.26
2022-04-27 12:13:34.1820,-0.421,1.033,-0.174,6.06,-0.87,2.73,-0.18,-3.06,-1.31
2022-04-27 12:13:34.1930,-0.21,1.018,-0.132,1.52,-0.58,2.93,0.12,-3.48,-1.29
2022-04-27 12:13:34.1960,-0.206,0.99,-0.113,1.52,-0.58,2.93,0.4,-3.44,-1.24
2022-04-27 12:13:34.2110,-0.33,0.977,-0.062,0.2,-0.16,2.38,0.62,-2.74,-1.2
2022-04-27 12:13:34.2230,-0.506,0.95,0.009,1.57,-0.06,1.72,0.76,-1.05,-1.15
2022-04-27 12:13:34.2330,-0.706,0.845,0.036,3.28,0.35,1.0,0.81,0.3,-1.22
2022-04-27 12:13:34.2430,-0.871,0.714,-0.001,5.06,1.49,0.93,0.72,0.44,-1.41
2022-04-27 12:13:34.2530,-0.904,0.622,0.06,6.37,2.71,1.02,0.43,-0.28,-1.53
2022-04-27 12:13:34.2630,-0.702,0.59,0.104,5.97,3.43,0.34,-0.1,-1.39,-1.52
2022-04-27 12:13:34.2740,-0.403,0.606,0.132,3.48,3.56,0.07,-0.79,-2.63,-1.34
2022-04-27 12:13:34.2830,-0.096,0.637,0.191,0.42,3.29,-0.08,-1.63,-3.83,-0.95
2022-04-27 12:13:34.2920,0.185,0.671,0.297,-2.59,2.93,-0.49,-2.55,-4.83,-0.4
2022-04-27 12:13:34.3020,0.338,0.685,0.426,-5.12,2.54,-1.22,-3.49,-5.5,0.14
2022-04-27 12:13:34.3130,0.181,0.621,0.591,-5.83,2.49,-2.03,-4.42,-5.72,0.49
2022-04-27 12:13:34.3220,-0.077,0.561,0.907,-3.46,3.12,-3.27,-5.43,-4.59,0.64
2022-04-27 12:13:34.3320,-0.232,0.612,1.295,-0.93,3.32,-6.56,-6.32,-3.45,0.71
2022-04-27 12:13:34.3440,-0.098,0.71,1.215,0.25,2.36,-8.51,-7.02,-2.69,0.88
2022-04-27 12:13:34.3530,0.066,0.826,1.098,-1.38,1.05,-6.63,-7.29,-1.98,1.05
2022-04-27 12:13:34.3610,0.047,0.998,1.055,-2.4,-0.53,-5.02,-6.8,-0.41,1.19
2022-04-27 12:13:34.3720,-0.07,1.201,1.196,-1.73,-2.7,-4.65,-6.61,0.58,1.18
2022-04-27 12:13:34.3840,-0.107,1.26,0.885,-0.61,-5.03,-4.8,-6.79,1.25,0.94
2022-04-27 12:13:34.3910,-0.135,1.156,0.762,-0.47,-5.45,-1.06,-7.07,1.2,0.55
2022-04-27 12:13:34.4010,-0.266,1.089,0.731,0.02,-4.9,-0.01,-7.09,1.06,-0.07
2022-04-27 12:13:34.4130,-0.375,1.077,0.673,1.32,-5.02,0.72,-6.87,0.99,-0.72
2022-04-27 12:13:34.4210,-0.327,0.949,0.594,1.85,-5.22,1.86,-6.46,1.06,-1.26
2022-04-27 12:13:34.4360,-0.228,0.787,0.644,1.01,-4.28,2.58,-5.93,1.2,-1.67
2022-04-27 12:13:34.4420,-0.349,0.894,0.713,0.22,-3.75,2.08,-5.35,1.21,-2.0
2022-04-27 12:13:34.4510,-0.326,0.87,0.607,1.26,-5.37,2.1,-4.78,1.2,-2.19
2022-04-27 12:13:34.4600,-0.348,0.804,0.66,0.64,-5.27,2.99,-4.36,0.97,-2.31
2022-04-27 12:13:34.4700,-0.377,0.725,0.658,0.88,-5.12,2.54,-4.0,0.66,-2.42
2022-04-27 12:13:34.4820,-0.414,0.604,0.668,1.02,-4.59,2.7,-3.67,0.45,-2.53
2022-04-27 12:13:34.4920,-0.418,0.525,0.733,1.28,-3.9,2.57,-3.42,0.57,-2.64
2022-04-27 12:13:34.5010,-0.383,0.459,0.816,1.09,-3.55,1.82,-3.32,0.78,-2.71
2022-04-27 12:13:34.5110,-0.36,0.397,0.854,0.61,-3.32,1.12,-3.33,0.85,-2.73
2022-04-27 12:13:34.5220,-0.384,0.342,0.855,0.4,-3.11,0.85,-3.4,0.73,-2.69
2022-04-27 12:13:34.5310,-0.422,0.305,0.833,0.64,-3.01,0.91,-3.52,0.46,-2.64
2022-04-27 12:13:34.5420,-0.456,0.283,0.812,0.97,-3.1,1.13,-3.66,0.13,-2.6
2022-04-27 12:13:34.5520,-0.462,0.258,0.818,1.27,-3.33,1.28,-3.81,-0.11,-2.62
2022-04-27 12:13:34.5610,-0.436,0.214,0.838,1.26,-3.48,1.13,-3.91,-0.23,-2.7
2022-04-27 12:13:34.5700,-0.379,0.144,0.876,1.01,-3.43,0.89,-3.92,-0.14,-2.79
2022-04-27 12:13:34.5810,-0.319,0.061,0.929,0.43,-3.14,0.36,-3.78,0.2,-2.87
2022-04-27 12:13:34.5910,-0.283,-0.015,0.949,-0.06,-2.75,-0.18,-3.55,0.61,-2.95
2022-04-27 12:13:34.6000,-0.252,-0.071,0.923,-0.37,-2.44,-0.39,-3.27,0.96,-3.03
2022-04-27 12:13:34.6110,-0.241,-0.119,0.862,-0.66,-2.32,-0.15,-3.01,1.21,-3.11
2022-04-27 12:13:34.6210,-0.251,-0.167,0.781,-0.7,-2.19,0.36,-2.8,1.31,-3.19
2022-04-27 12:13:34.6290,-0.252,-0.211,0.672,-0.61,-2.06,1.08,-2.61,1.2,-3.24
2022-04-27 12:13:34.6410,-0.281,-0.277,0.547,-0.55,-1.93,2.08,-2.42,0.83,-3.24
2022-04-27 12:13:34.6500,-0.352,-0.32,0.424,-0.05,-1.53,3.18,-2.42,0.83,-3.24
2022-04-27 12:13:34.6600,-0.414,-0.341,0.313,0.8,-1.5,4.26,-1.88,-0.22,-3.18
2022-04-27 12:13:34.6700,-0.429,-0.385,0.221,1.49,-1.47,5.26,-1.51,-0.84,-3.16
2022-04-27 12:13:34.6800,-0.414,-0.436,0.171,1.78,-1.21,6.0,-1.21,-1.59,-3.17
2022-04-27 12:13:34.6900,-0.346,-0.486,0.162,1.84,-0.87,6.4,-1.03,-2.52,-3.17
2022-04-27 12:13:34.7000,-0.242,-0.505,0.21,1.44,-0.56,6.33,-1.01,-3.54,-3.13
2022-04-27 12:13:34.7100,-0.121,-0.526,0.272,0.85,-0.54,5.78,-1.05,-4.48,-3.05
2022-04-27 12:13:34.7210,0.027,-0.526,0.345,0.13,-0.46,5.16,-1.13,-5.2,-2.98
2022-04-27 12:13:34.7300,0.18,-0.5,0.457,-0.76,-0.66,4.33,-1.24,-5.7,-2.9
2022-04-27 12:13:34.7400,0.324,-0.491,0.577,-1.66,-0.98,3.05,-1.35,-6.03,-2.86
2022-04-27 12:13:34.7500,0.441,-0.475,0.698,-2.35,-1.14,1.77,-1.41,-6.02,-2.83
2022-04-27 12:13:34.7590,0.488,-0.484,0.812,-2.78,-1.37,0.43,-1.45,-5.72,-2.86
2022-04-27 12:13:34.7690,0.485,-0.533,0.925,-2.43,-1.18,-0.9,-1.58,-5.24,-2.86
2022-04-27 12:13:34.7800,0.477,-0.527,0.994,-1.86,-0.83,-2.17,-1.85,-4.76,-2.83
2022-04-27 12:13:34.7900,0.55,-0.529,1.006,-1.37,-1.0,-2.99,-2.23,-4.47,-2.71
2022-04-27 12:13:34.8000,0.658,-0.542,0.984,-1.85,-0.98,-3.28,-2.62,-4.21,-2.45
2022-04-27 12:13:34.8100,0.732,-0.554,0.957,-2.41,-0.94,-3.37,-2.92,-3.87,-2.08
2022-04-27 12:13:34.8190,0.76,-0.578,0.912,-2.74,-0.91,-3.43,-3.08,-3.51,-1.7
2022-04-27 12:13:34.8290,0.705,-0.619,0.856,-2.49,-0.69,-3.31,-3.11,-3.53,-1.33
2022-04-27 12:13:34.8400,0.44,-0.594,0.432,-1.1,-0.59,-2.99,-3.34,-6.61,-0.76
2022-04-27 12:13:34.8500,0.743,-0.982,-1.278,0.83,-0.39,3.81,-3.48,-12.74,0.55
2022-04-27 12:13:34.8590,0.7,-1.312,-1.829,-1.72,4.12,19.89,-2.87,-14.33,1.65
2022-04-27 12:13:34.8700,0.689,-0.874,-0.347,0.24,4.95,16.36,-2.09,-15.1,2.28
2022-04-27 12:13:34.8790,1.116,-0.681,-0.428,-1.57,0.71,4.04,-1.28,-16.48,2.78
2022-04-27 12:13:34.8890,1.19,-0.517,-0.293,-4.91,-1.28,4.21,-0.73,-17.93,3.21
2022-04-27 12:13:34.8990,1.287,-0.472,-0.469,-5.86,-2.85,1.71,0.44,-14.59,3.09
2022-04-27 12:13:34.9090,0.408,-1.047,-1.083,-6.19,-2.53,4.52,0.53,-8.01,2.36
2022-04-27 12:13:34.9200,0.681,-1.047,-0.27,1.93,3.09,8.15,0.51,-3.67,0.97
2022-04-27 12:13:34.9290,0.229,-0.889,0.38,-0.98,1.92,-2.7,0.23,-3.02,0.18
2022-04-27 12:13:34.9390,0.384,-0.713,-0.302,3.07,0.23,-4.83,-0.51,-4.81,-0.25
2022-04-27 12:13:34.9480,0.659,-0.536,-0.262,0.61,-1.43,0.94,-1.53,-6.24,-0.35
2022-04-27 12:13:34.9580,0.941,-0.561,-0.186,-2.49,-2.88,-1.14,-2.68,-6.9,-0.12
2022-04-27 12:13:34.9690,0.836,-0.712,-0.322,-4.74,-1.88,-1.73,-3.59,-6.91,0.34
2022-04-27 12:13:34.9790,0.639,-0.738,-0.612,-3.37,-0.57,-0.54,-4.18,-7.29,0.71
2022-04-27 12:13:34.9890,0.541,-0.782,-0.872,-2.05,-0.19,1.7,-4.38,-7.98,0.65
2022-04-27 12:13:34.9980,0.493,-0.792,-1.085,-1.77,0.45,3.57,-4.42,-8.66,0.24
2022-04-27 12:13:35.0090,0.466,-0.78,-1.12,-1.85,0.69,4.69,-4.39,-9.18,-0.21
2022-04-27 12:13:35.0180,0.498,-0.782,-1.1,-2.27,0.86,4.23,-4.33,-9.54,-0.37
2022-04-27 12:13:35.0280,0.555,-0.828,-1.067,-3.37,1.29,3.51,-4.23,-9.68,-0.2
2022-04-27 12:13:35.0390,0.574,-0.857,-1.041,-4.56,2.09,2.83,-4.04,-9.67,0.26
2022-04-27 12:13:35.0470,0.539,-0.804,-0.974,-5.41,2.53,2.2,-3.8,-9.69,0.86
2022-04-27 12:13:35.0580,0.366,-0.688,-0.862,-5.58,2.02,1.29,-3.59,-9.47,1.24
2022-04-27 12:13:35.0680,0.111,-0.669,-0.628,-4.55,1.4,-0.26,-3.51,-9.12,1.26
2022-04-27 12:13:35.0770,-0.254,-0.679,-0.494,-2.39,1.63,-2.48,-3.45,-7.9,0.88
2022-04-27 12:13:35.0880,-0.417,-0.665,-0.379,0.26,2.08,-3.58,-3.24,-5.37,0.46
2022-04-27 12:13:35.0980,-0.376,-0.6,0.255,0.86,1.93,-5.58,-3.05,-3.41,0.18
2022-04-27 12:13:35.1070,-0.409,-0.485,-0.03,0.09,1.62,-10.79,-2.44,-1.48,0.01
2022-04-27 12:13:35.1180,-0.477,-0.4,-0.202,0.6,0.48,-7.26,-1.77,-0.51,-0.22
2022-04-27 12:13:35.1280,-0.45,-0.363,-0.621,1.06,0.03,-5.56,-1.05,-0.08,-0.53
2022-04-27 12:13:35.1380,-0.424,-0.335,-0.825,0.69,-0.29,-1.33,-0.61,0.1,-0.86
2022-04-27 12:13:35.1480,-0.388,-0.304,-0.892,0.53,-0.54,-0.1,-0.34,0.2,-1.14
2022-04-27 12:13:35.1580,-0.343,-0.285,-0.87,0.18,-0.85,0.46,-0.15,0.34,-1.35
2022-04-27 12:13:35.1680,-0.292,-0.287,-0.872,-0.17,-1.03,0.07,0.04,0.46,-1.46
2022-04-27 12:13:35.1780,-0.211,-0.341,-0.908,-0.64,-0.97,0.24,0.3,0.55,-1.42
2022-04-27 12:13:35.1880,-0.15,-0.415,-0.976,-1.36,-0.4,0.66,0.62,0.53,-1.26
2022-04-27 12:13:35.1970,-0.151,-0.454,-1.023,-1.73,0.16,1.36,0.9,0.47,-1.07
2022-04-27 12:13:35.2070,-0.199,-0.449,-1.018,-1.49,0.33,1.71,1.07,0.45,-0.96
2022-04-27 12:13:35.2180,-0.269,-0.401,-0.98,-0.87,0.06,1.59,1.11,0.44,-0.98
2022-04-27 12:13:35.2270,-0.327,-0.356,-0.934,-0.1,-0.59,1.21,1.06,0.41,-1.11
2022-04-27 12:13:35.2370,-0.34,-0.354,-0.918,0.47,-1.06,0.83,0.96,0.35,-1.26
2022-04-27 12:13:35.2470,-0.308,-0.373,-0.914,0.56,-1.11,0.77,0.85,0.24,-1.36
2022-04-27 12:13:35.2560,-0.272,-0.411,-0.908,0.27,-0.99,0.76,0.74,0.12,-1.4
2022-04-27 12:13:35.2660,-0.234,-0.474,-0.887,0.01,-0.63,0.71,0.6,0.09,-1.35
2022-04-27 12:13:35.2770,-0.204,-0.519,-0.845,-0.31,-0.1,0.48,0.45,0.1,-1.26
2022-04-27 12:13:35.2870,-0.205,-0.537,-0.791,-0.45,0.2,0.05,0.29,0.2,-1.17
2022-04-27 12:13:35.2970,-0.208,-0.533,-0.749,-0.33,0.28,-0.49,0.15,0.35,-1.08
2022-04-27 12:13:35.3070,-0.206,-0.525,-0.743,-0.24,0.17,-0.82,0.03,0.49,-1.0
2022-04-27 12:13:35.3170,-0.202,-0.51,-0.789,-0.17,0.07,-0.78,0.03,0.55,-0.91
2022-04-27 12:13:35.3180,-0.194,-0.504,-0.855,-0.17,0.07,-0.78,0.01,0.55,-0.86
2022-04-27 12:13:35.3360,-0.194,-0.481,-0.886,-0.1,-0.15,0.32,0.02,0.49,-0.86
2022-04-27 12:13:35.3460,-0.199,-0.425,-0.932,-0.03,-0.51,0.65,0.09,0.42,-0.93
2022-04-27 12:13:35.3560,-0.209,-0.384,-0.949,0.14,-1.11,1.07,0.15,0.36,-1.04
2022-04-27 12:13:35.3650,-0.21,-0.372,-0.945,0.31,-1.47,1.14,0.2,0.34,-1.14
2022-04-27 12:13:35.3770,-0.197,-0.396,-0.91,0.38,-1.52,1.06,0.23,0.37,-1.26
2022-04-27 12:13:35.3860,-0.177,-0.402,-0.884,0.31,-1.32,0.69,0.22,0.35,-1.43
2022-04-27 12:13:35.3960,-0.147,-0.376,-0.883,0.22,-1.38,0.51,0.21,0.3,-1.6
2022-04-27 12:13:35.4060,-0.095,-0.387,-0.895,-0.02,-1.69,0.55,0.27,0.26,-1.61
2022-04-27 12:13:35.4160,-0.027,-0.48,-0.898,-0.49,-1.41,0.68,0.41,0.3,-1.45
2022-04-27 12:13:35.4260,0.027,-0.586,-0.887,-1.05,-0.44,0.69,0.53,0.25,-1.22
2022-04-27 12:13:35.4360,0.109,-0.664,-0.974,-1.47,0.48,0.66,0.53,-0.13,-0.95
2022-04-27 12:13:35.4470,0.187,-0.75,-1.002,-2.41,1.2,1.91,0.49,0.07,-0.63
2022-04-27 12:13:35.4550,0.112,-0.761,-0.732,-2.77,1.91,1.16,0.36,0.23,-0.41
2022-04-27 12:13:35.4650,0.055,-0.71,-0.729,-1.81,1.78,-1.1,0.3,0.27,-0.27
2022-04-27 12:13:35.4760,0.042,-0.638,-0.754,-1.47,1.16,-0.67,0.29,0.31,-0.22
2022-04-27 12:13:35.4850,-0.015,-0.595,-0.725,-1.16,0.47,-0.67,0.26,0.34,-0.25
2022-04-27 12:13:35.4960,-0.044,-0.563,-0.734,-0.59,0.08,-0.85,0.2,0.34,-0.33
2022-04-27 12:13:35.5060,-0.054,-0.551,-0.748,-0.33,-0.21,-0.72,0.12,0.3,-0.41
2022-04-27 12:13:35.5160,-0.062,-0.551,-0.759,-0.19,-0.3,-0.59,0.05,0.23,-0.49
2022-04-27 12:13:35.5260,-0.06,-0.553,-0.765,-0.08,-0.3,-0.49,-0.01,0.18,-0.54
2022-04-27 12:13:35.5360,-0.044,-0.556,-0.772,-0.09,-0.28,-0.45,-0.1,0.12,-0.56
2022-04-27 12:13:35.5460,-0.024,-0.558,-0.778,-0.24,-0.24,-0.37,-0.25,0.08,-0.55
2022-04-27 12:13:35.5540,-0.006,-0.604,-0.783,-0.36,-0.17,-0.37,-0.23,0.05,-0.44
2022-04-27 12:13:35.5650,0.036,-0.644,-0.83,-0.6,0.42,-0.21,-0.18,-0.0,-0.29
2022-04-27 12:13:35.5750,0.038,-0.615,-0.85,-0.94,0.63,0.23,-0.19,-0.12,-0.21
2022-04-27 12:13:35.5850,0.014,-0.579,-0.84,-0.86,0.3,0.31,-0.23,-0.23,-0.2
2022-04-27 12:13:35.5950,-0.007,-0.548,-0.821,-0.63,-0.03,0.17,-0.28,-0.28,-0.21
2022-04-27 12:13:35.6060,-0.02,-0.532,-0.804,-0.45,-0.29,-0.05,-0.33,-0.31,-0.23
2022-04-27 12:13:35.6150,-0.02,-0.539,-0.825,-0.36,-0.36,-0.16,-0.35,-0.36,-0.24
2022-04-27 12:13:35.6250,-0.013,-0.562,-0.869,-0.41,-0.21,0.12,-0.33,-0.43,-0.21
2022-04-27 12:13:35.6350,-0.012,-0.577,-0.895,-0.49,0.05,0.52,-0.28,-0.47,-0.18
2022-04-27 12:13:35.6460,-0.02,-0.579,-0.896,-0.51,0.17,0.69,-0.24,-0.49,-0.14
2022-04-27 12:13:35.6540,-0.035,-0.566,-0.893,-0.44,0.18,0.67,-0.2,-0.5,-0.11
2022-04-27 12:13:35.6650,-0.055,-0.55,-0.884,-0.3,0.05,0.63,-0.18,-0.5,-0.1
2022-04-27 12:13:35.6750,-0.069,-0.532,-0.861,-0.16,-0.1,0.5,-0.2,-0.51,-0.11
2022-04-27 12:13:35.6840,-0.079,-0.517,-0.836,-0.07,-0.25,0.25,-0.25,-0.5,-0.14
2022-04-27 12:13:35.6940,-0.081,-0.515,-0.812,-0.02,-0.36,-0.01,-0.3,-0.5,-0.17
2022-04-27 12:13:35.7040,-0.072,-0.523,-0.797,-0.05,-0.32,-0.24,-0.36,-0.47,-0.19
2022-04-27 12:13:35.7140,-0.056,-0.536,-0.79,-0.2,-0.2,-0.38,-0.4,-0.44,-0.2
