time,gFx,gFy,gFz,ax,ay,az,wx,wy,wz,P(Pa)
2022-04-27 11:44:29.9520,-0.13,-0.902,-0.324,0.52,-0.21,-0.67,0.1,0.04,0.09,100320.015
2022-04-27 11:44:29.9600,-0.071,-0.927,-0.331,-0.04,0.07,-0.72,0.13,0.05,0.11,100320.015
2022-04-27 11:44:29.9700,-0.066,-0.924,-0.342,-0.23,0.14,-0.59,0.11,0.03,0.11,100320.015
2022-04-27 11:44:29.9800,-0.064,-0.924,-0.353,-0.25,0.08,-0.49,0.07,0.0,0.13,100320.015
2022-04-27 11:44:29.9900,-0.057,-0.93,-0.36,-0.31,0.15,-0.38,0.06,-0.03,0.13,100320.015
2022-04-27 11:44:29.9990,-0.045,-0.923,-0.361,-0.44,0.13,-0.36,0.06,-0.05,0.13,100320.015
2022-04-27 11:44:30.0100,-0.048,-0.915,-0.361,-0.49,0.04,-0.34,0.06,-0.07,0.12,100320.015
2022-04-27 11:44:30.0190,-0.061,-0.912,-0.355,-0.39,-0.02,-0.4,0.06,-0.08,0.1,100320.015
2022-04-27 11:44:30.0290,-0.074,-0.914,-0.36,-0.27,-0.02,-0.38,0.06,-0.09,0.09,100320.015
2022-04-27 11:44:30.0390,-0.083,-0.921,-0.363,-0.18,0.04,-0.32,0.07,-0.11,0.07,100320.015
2022-04-27 11:44:30.0500,-0.091,-0.917,-0.354,-0.11,0.06,-0.35,0.05,-0.11,0.06,100320.015
2022-04-27 11:44:30.0590,-0.105,-0.909,-0.36,-0.01,-0.04,-0.37,0.07,-0.09,0.02,100320.015
2022-04-27 11:44:30.0690,-0.115,-0.909,-0.358,0.12,-0.06,-0.3,0.07,-0.09,0.02,100320.015
2022-04-27 11:44:30.0790,-0.107,-0.907,-0.34,0.1,-0.08,-0.44,0.06,-0.09,0.01,100320.015
2022-04-27 11:44:30.0890,-0.09,-0.914,-0.35,-0.05,-0.06,-0.48,0.06,-0.07,-0.03,100320.015
2022-04-27 11:44:30.0990,-0.08,-0.933,-0.353,-0.18,0.1,-0.36,0.06,-0.07,-0.03,100320.015
2022-04-27 11:44:30.1090,-0.08,-0.935,-0.347,-0.22,0.2,-0.4,0.09,-0.04,-0.02,100320.015
2022-04-27 11:44:30.1190,-0.1,-0.933,-0.342,-0.08,0.15,-0.46,0.11,-0.02,-0.02,100320.015
2022-04-27 11:44:30.1290,-0.117,-0.937,-0.356,0.12,0.19,-0.37,0.15,-0.02,-0.01,100320.015
2022-04-27 11:44:30.1390,-0.11,-0.939,-0.352,0.14,0.2,-0.29,0.17,-0.01,-0.01,100320.015
2022-04-27 11:44:30.1490,-0.096,-0.941,-0.349,0.01,0.21,-0.37,0.17,0.02,-0.01,100320.015
2022-04-27 11:44:30.1590,-0.085,-0.946,-0.363,-0.11,0.24,-0.23,0.18,0.02,-0.0,100320.015
2022-04-27 11:44:30.1690,-0.084,-0.954,-0.357,-0.17,0.3,-0.2,0.18,0.02,-0.0,100320.015
2022-04-27 11:44:30.1790,-0.087,-0.963,-0.355,-0.14,0.39,-0.24,0.18,0.03,0.02,100320.015
2022-04-27 11:44:30.1890,-0.096,-0.97,-0.353,-0.07,0.45,-0.23,0.18,0.03,0.04,100320.015
2022-04-27 11:44:30.1990,-0.106,-0.978,-0.351,0.03,0.52,-0.24,0.18,0.03,0.04,100320.015
2022-04-27 11:44:30.2090,-0.107,-0.976,-0.349,0.07,0.54,-0.24,0.18,0.04,0.05,100320.015
2022-04-27 11:44:30.2190,-0.108,-0.96,-0.349,0.08,0.44,-0.23,0.21,0.07,0.06,100320.015
2022-04-27 11:44:30.2280,-0.099,-0.943,-0.343,0.03,0.24,-0.25,0.23,0.09,0.05,100320.015
2022-04-27 11:44:30.2380,-0.082,-0.927,-0.342,-0.12,0.09,-0.27,0.24,0.1,0.04,100320.015
2022-04-27 11:44:30.2480,-0.075,-0.91,-0.35,-0.24,-0.12,-0.2,0.24,0.1,0.04,100320.015
2022-04-27 11:44:30.2580,-0.08,-0.923,-0.358,-0.23,-0.11,-0.07,0.27,0.11,0.03,100320.015
2022-04-27 11:44:30.2680,-0.097,-0.934,-0.346,-0.11,0.04,-0.1,0.27,0.11,0.03,100320.015
2022-04-27 11:44:30.2780,-0.125,-0.952,-0.342,0.16,0.11,-0.2,0.28,0.09,0.0,100320.015
2022-04-27 11:44:30.2880,-0.119,-0.971,-0.333,0.24,0.4,-0.14,0.24,0.09,-0.02,100320.015
2022-04-27 11:44:30.2980,-0.112,-0.955,-0.305,0.13,0.29,-0.43,0.23,0.09,-0.04,100320.015
2022-04-27 11:44:30.3080,-0.109,-0.95,-0.317,0.12,0.21,-0.42,0.22,0.07,-0.06,100320.015
2022-04-27 11:44:30.3180,-0.092,-0.936,-0.322,0.02,0.09,-0.27,0.21,0.06,-0.05,100320.015
2022-04-27 11:44:30.3280,-0.088,-0.93,-0.329,-0.1,-0.01,-0.25,0.18,0.02,-0.05,100320.015
2022-04-27 11:44:30.3380,-0.099,-0.918,-0.34,-0.01,-0.1,-0.09,0.16,-0.01,-0.06,100320.015
2022-04-27 11:44:30.3480,-0.097,-0.913,-0.328,0.03,-0.21,-0.12,0.16,0.05,-0.07,100320.015
2022-04-27 11:44:30.3580,-0.101,-0.913,-0.289,0.03,-0.2,-0.35,0.15,0.08,-0.08,100320.015
2022-04-27 11:44:30.3680,-0.099,-0.915,-0.289,0.09,-0.23,-0.69,0.16,0.06,-0.08,100320.015
2022-04-27 11:44:30.3780,-0.084,-0.932,-0.328,-0.05,-0.1,-0.19,0.13,0.01,-0.07,100320.015
2022-04-27 11:44:30.3870,-0.069,-0.937,-0.32,-0.18,0.0,-0.14,0.13,0.01,-0.07,100352.196
2022-04-27 11:44:30.3970,-0.063,-0.941,-0.336,-0.27,0.01,-0.16,0.1,-0.01,-0.05,100352.196
2022-04-27 11:44:30.4080,-0.067,-0.954,-0.331,-0.26,0.12,0.06,0.06,0.02,-0.04,100352.196
2022-04-27 11:44:30.4170,-0.074,-0.949,-0.292,-0.19,0.16,-0.4,0.04,0.07,-0.03,100352.196
2022-04-27 11:44:30.4270,-0.082,-0.941,-0.314,-0.12,0.06,-0.29,0.1,0.16,-0.02,100352.196
2022-04-27 11:44:30.4370,-0.067,-0.959,-0.314,-0.14,0.08,-0.27,0.1,0.13,0.02,100352.196
2022-04-27 11:44:30.4470,-0.088,-0.972,-0.332,-0.18,0.35,-0.08,0.08,0.13,0.05,100352.196
2022-04-27 11:44:30.4570,-0.125,-0.957,-0.34,0.25,0.22,0.01,0.07,0.1,0.07,100352.196
2022-04-27 11:44:30.4670,-0.118,-0.968,-0.352,0.34,0.23,0.11,0.09,0.09,0.08,100352.196
2022-04-27 11:44:30.4770,-0.099,-0.958,-0.364,0.14,0.3,0.26,0.08,0.07,0.06,100352.196
2022-04-27 11:44:30.4870,-0.087,-0.925,-0.375,0.0,-0.06,0.37,0.11,0.09,0.02,100352.196
2022-04-27 11:44:30.4970,-0.078,-0.939,-0.375,-0.09,-0.1,0.43,0.11,0.09,0.02,100352.196
2022-04-27 11:44:30.5070,-0.08,-0.955,-0.365,-0.15,0.12,0.37,0.12,0.2,0.02,100352.196
2022-04-27 11:44:30.5170,-0.109,-0.946,-0.367,0.09,0.12,0.32,0.11,0.22,-0.02,100352.196
2022-04-27 11:44:30.5270,-0.109,-0.951,-0.369,0.23,0.01,0.4,0.14,0.25,-0.03,100352.196
2022-04-27 11:44:30.5360,-0.107,-0.974,-0.348,0.19,0.31,0.28,0.14,0.25,-0.03,100352.196
2022-04-27 11:44:30.5460,-0.111,-0.961,-0.334,0.2,0.19,0.08,0.22,0.29,-0.07,100352.196
2022-04-27 11:44:30.5560,-0.126,-0.993,-0.342,0.36,0.42,0.1,0.25,0.3,-0.13,100352.196
2022-04-27 11:44:30.5660,-0.121,-0.973,-0.351,0.42,0.4,0.24,0.29,0.27,-0.14,100352.196
2022-04-27 11:44:30.5760,-0.088,-0.922,-0.373,0.21,0.02,0.39,0.33,0.23,-0.13,100352.196
2022-04-27 11:44:30.5870,-0.085,-0.876,-0.397,-0.07,-0.5,0.68,0.4,0.22,-0.34,100352.196
2022-04-27 11:44:30.5960,-0.104,-0.778,-0.383,0.45,-2.05,0.68,0.44,0.22,-0.21,100352.196
2022-04-27 11:44:30.6060,0.053,-1.174,-0.357,-0.86,1.22,0.55,0.44,0.22,-0.21,100352.196
2022-04-27 11:44:30.6160,-0.114,-1.0,-0.339,-0.26,1.54,0.29,0.35,0.16,-0.08,100352.196
2022-04-27 11:44:30.6270,-0.205,-0.874,-0.366,1.22,-0.49,0.56,0.36,-0.06,0.03,100352.196
2022-04-27 11:44:30.6360,-0.133,-0.96,-0.349,0.72,-0.35,0.52,0.4,0.01,0.12,100352.196
2022-04-27 11:44:30.6460,-0.088,-1.152,-0.305,0.43,1.31,0.21,0.38,0.03,0.25,100352.196
2022-04-27 11:44:30.6560,-0.119,-1.07,-0.302,0.19,1.79,0.01,0.43,0.06,0.2,100352.196
2022-04-27 11:44:30.6660,-0.103,-0.951,-0.325,0.54,0.21,0.24,0.51,0.05,0.17,100352.196
2022-04-27 11:44:30.6760,-0.017,-0.964,-0.341,-0.33,-0.05,0.48,0.62,0.06,0.16,100352.196
2022-04-27 11:44:30.6860,-0.008,-1.003,-0.335,-0.72,0.34,0.58,0.7,0.09,0.17,100352.196
2022-04-27 11:44:30.6960,-0.02,-1.016,-0.318,-0.62,0.52,0.45,0.7,0.09,0.17,100352.196
2022-04-27 11:44:30.7060,-0.037,-1.02,-0.32,-0.49,0.62,0.52,0.76,0.08,0.15,100352.196
2022-04-27 11:44:30.7150,-0.037,-0.97,-0.293,-0.39,0.29,0.43,0.79,0.14,0.13,100352.196
2022-04-27 11:44:30.7260,-0.016,-0.912,-0.273,-0.57,-0.31,0.23,0.79,0.14,0.13,100352.196
2022-04-27 11:44:30.7360,0.002,-0.855,-0.279,-0.79,-0.88,0.28,0.89,0.08,0.17,100352.196
2022-04-27 11:44:30.7450,0.023,-0.784,-0.263,-0.95,-1.5,0.37,0.92,-0.03,0.22,100352.196
2022-04-27 11:44:30.7550,0.033,-0.729,-0.232,-1.23,-2.25,0.1,0.96,-0.08,0.24,100352.196
2022-04-27 11:44:30.7650,0.04,-0.681,-0.204,-1.18,-2.74,-0.05,0.99,-0.23,0.2,100352.196
2022-04-27 11:44:30.7750,0.036,-0.781,-0.163,-1.22,-2.58,-0.33,0.99,-0.23,0.2,100352.196
2022-04-27 11:44:30.7850,0.042,-0.89,-0.076,-1.36,-0.83,-0.77,0.85,-0.25,0.15,100352.196
2022-04-27 11:44:30.7950,0.066,-0.774,0.016,-1.42,-1.63,-1.89,0.73,-0.28,0.19,100352.196
2022-04-27 11:44:30.8050,0.141,-0.752,-0.04,-2.0,-2.12,-1.67,0.61,-0.41,0.31,100352.196
2022-04-27 11:44:30.8150,0.154,-0.788,-0.08,-2.69,-2.27,-1.06,0.55,-0.43,0.39,100352.196
2022-04-27 11:44:30.8250,0.07,-0.893,-0.035,-2.06,-1.09,-1.11,0.55,-0.43,0.39,100352.196
2022-04-27 11:44:30.8360,-0.025,-0.831,0.002,-1.18,-0.93,-1.57,0.27,-0.23,0.09,100352.196
2022-04-27 11:44:30.8450,0.071,-0.887,-0.026,-1.13,-1.76,-1.69,0.27,-0.23,0.09,100352.196
2022-04-27 11:44:30.8550,0.197,-0.91,-0.082,-2.88,0.1,-0.85,0.14,-0.15,0.31,100352.196
2022-04-27 11:44:30.8650,0.092,-0.493,-0.099,-2.56,-3.48,-0.84,0.22,-0.14,0.21,100352.196
2022-04-27 11:44:30.8750,-0.021,-0.428,-0.269,-1.33,-5.51,0.44,0.22,-0.14,0.21,100352.196
2022-04-27 11:44:30.8850,-0.073,-0.51,-0.248,-0.56,-4.97,1.26,0.37,-0.12,-0.04,100352.196
2022-04-27 11:44:30.8950,-0.053,-0.61,-0.21,-0.54,-4.0,0.44,0.37,-0.12,-0.04,100352.196
2022-04-27 11:44:30.9040,-0.021,-0.703,-0.265,-0.92,-3.08,1.1,0.55,-0.22,-0.19,100352.196
2022-04-27 11:44:30.9150,-0.066,-0.82,-0.19,-0.69,-2.07,0.75,0.55,-0.22,-0.19,100352.196
2022-04-27 11:44:30.9250,-0.015,-0.931,-0.152,-0.71,-0.89,0.28,0.54,-0.25,-0.23,100352.196
2022-04-27 11:44:30.9340,0.001,-1.029,-0.077,-1.19,0.04,-0.29,0.44,-0.38,-0.24,100352.196
2022-04-27 11:44:30.9440,-0.001,-1.108,-0.075,-1.03,1.02,-0.63,0.32,-0.38,-0.24,100352.196
2022-04-27 11:44:30.9550,0.054,-1.109,-0.121,-1.39,1.23,-0.23,0.24,-0.49,-0.24,100352.196
2022-04-27 11:44:30.9640,0.084,-1.086,-0.155,-1.88,1.12,0.19,0.07,-0.52,-0.23,100352.196
2022-04-27 11:44:30.9740,0.058,-1.01,-0.179,-1.74,0.48,0.48,-0.03,-0.59,-0.24,100352.196
2022-04-27 11:44:30.9840,0.016,-1.012,-0.181,-1.4,0.17,0.61,-0.03,-0.59,-0.24,100352.196
2022-04-27 11:44:30.9940,-0.066,-1.029,-0.133,-0.7,0.34,0.32,-0.08,-0.6,-0.29,100352.196
2022-04-27 11:44:31.0040,-0.123,-1.051,-0.045,0.07,0.59,-0.45,-0.3,-0.55,-0.35,100352.196
2022-04-27 11:44:31.0140,-0.149,-1.039,-0.013,0.4,0.52,-1.05,-0.5,-0.47,-0.28,100352.196
2022-04-27 11:44:31.0240,-0.161,-1.035,-0.03,0.57,0.48,-1.21,-0.5048884749412537,-0.57,-0.3,100352.196
2022-04-27 11:44:31.0340,-0.15,-1.146,-0.132,0.72,0.93,-0.35,-0.5,-0.57,-0.3,100352.196
2022-04-27 11:44:31.0440,-0.099,-1.308,-0.15,0.13,2.73,0.08,-0.43,-0.6,-0.23,100352.196
2022-04-27 11:44:31.0540,-0.155,-1.343,-0.195,0.34,3.37,0.26,-0.39,-0.55,-0.17,100352.196
2022-04-27 11:44:31.0640,-0.2,-1.47,-0.239,1.04,4.3,0.87,-0.22,-0.33,-0.29,100352.196
2022-04-27 11:44:31.0740,-0.115,-1.277,-0.223,0.65,4.07,0.77,-0.54,-0.44,-0.5,100352.196
2022-04-27 11:44:31.0840,-0.125,-0.97,-0.309,0.15,0.67,1.14,-0.34,-0.19,-0.35,100352.196
2022-04-27 11:44:31.0930,-0.011,-1.316,-0.397,-0.18,1.76,2.19,-0.26,-0.2,-0.14,100352.196
2022-04-27 11:44:31.1030,-0.103,-1.125,-0.304,-0.27,2.54,1.84,-0.09,-0.14,-0.02,100352.196
2022-04-27 11:44:31.1140,-0.11,-1.031,-0.312,0.32,0.69,1.33,0.22,0.1,-0.14,100352.196
2022-04-27 11:44:31.1230,0.025,-1.213,-0.338,-0.02,0.61,1.74,0.33,0.14,0.21,100352.196
2022-04-27 11:44:31.1330,0.194,-1.529,-0.342,-2.58,5.06,1.75,0.33,0.14,0.21,100352.196
2022-04-27 11:44:31.1430,-0.095,-1.212,-0.38,-1.13,3.34,2.14,0.61,0.1,0.42,100352.196
2022-04-27 11:44:31.1530,-0.125,-1.286,-0.392,0.74,2.29,2.46,0.61,0.1,0.42,100352.196
2022-04-27 11:44:31.1630,-0.037,-1.354,-0.369,-0.41,3.58,2.33,0.59,0.17,0.44,100352.196
2022-04-27 11:44:31.1730,-0.09,-1.315,-0.388,-0.33,3.36,2.39,0.55,0.29,0.43,100352.196
2022-04-27 11:44:31.1830,-0.154,-1.277,-0.383,0.36,3.01,2.57,0.49,0.49,0.3,100352.196
2022-04-27 11:44:31.1930,-0.155,-1.24,-0.348,0.59,2.56,2.32,0.49,0.49,0.3,100352.196
2022-04-27 11:44:31.2030,-0.118,-1.278,-0.341,0.27,2.63,2.12,0.45,0.54,0.25,100352.196
2022-04-27 11:44:31.2130,-0.123,-1.36,-0.36,0.08,3.33,2.36,0.37,0.37,0.24,100352.196
2022-04-27 11:44:31.2230,-0.181,-1.404,-0.339,0.45,4.01,2.27,0.38,0.26,0.18,100352.196
2022-04-27 11:44:31.2330,-0.267,-1.398,-0.337,1.24,4.07,2.23,0.38,0.26,0.18,100352.196
2022-04-27 11:44:31.2420,-0.311,-1.364,-0.268,1.93,3.86,1.92,0.4,0.21,0.11,100352.196
2022-04-27 11:44:31.2530,-0.278,-1.297,-0.236,1.82,3.27,1.27,0.48,0.23,0.05,100352.196
2022-04-27 11:44:31.2630,-0.227,-1.262,-0.278,1.32,2.74,1.65,0.5,0.29,0.04,100352.196
2022-04-27 11:44:31.2720,-0.161,-1.235,-0.257,0.8,2.56,1.66,0.52,0.27,0.09,100352.196
2022-04-27 11:44:31.2820,-0.091,-1.208,-0.269,-0.01,2.17,1.71,0.48,0.25,0.16,100352.196
2022-04-27 11:44:31.2930,-0.067,-1.209,-0.242,-0.38,2.15,1.65,0.44,0.21,0.21,100352.196
2022-04-27 11:44:31.3020,-0.068,-1.204,-0.249,-0.5,2.11,1.58,0.44,0.21,0.21,100352.196
2022-04-27 11:44:31.3120,-0.117,-1.193,-0.239,-0.21,2.04,1.68,0.37,0.15,0.22,100352.196
2022-04-27 11:44:31.3220,-0.182,-1.176,-0.207,0.44,1.9,1.37,0.25,0.09,0.16,100352.196
2022-04-27 11:44:31.3320,-0.179,-1.126,-0.204,0.69,1.56,1.29,0.12,0.01,0.06,100352.196
2022-04-27 11:44:31.3420,-0.114,-1.036,-0.197,0.22,0.81,1.21,-0.12,-0.13,-0.1,100352.196
2022-04-27 11:44:31.3520,-0.059,-0.927,-0.163,-0.4,-0.2,0.95,-0.19,-0.16,-0.16,100382.401
2022-04-27 11:44:31.3620,-0.027,-0.829,-0.177,-0.8,-1.27,0.79,-0.19,-0.13,-0.19,100382.401
2022-04-27 11:44:31.3720,-0.066,-0.744,-0.217,-0.71,-2.09,1.23,-0.19,-0.13,-0.19,100382.401
2022-04-27 11:44:31.3820,-0.155,-0.659,-0.248,0.12,-2.94,1.58,0.03,-0.26,-0.24,100382.401
2022-04-27 11:44:31.3920,-0.173,-0.525,-0.262,0.65,-3.98,1.71,0.03,-0.26,-0.24,100382.401
2022-04-27 11:44:31.4020,-0.141,-0.34,-0.287,0.48,-5.72,1.95,0.12,-0.24,-0.25,100382.401
2022-04-27 11:44:31.4120,-0.071,-0.212,-0.285,-0.04,-7.29,2.12,0.21,-0.18,-0.21,100382.401
2022-04-27 11:44:31.4220,0.024,-0.167,-0.23,-0.89,-8.01,1.77,0.29,-0.08,-0.16,100382.401
2022-04-27 11:44:31.4310,0.099,-0.151,-0.141,-1.79,-8.17,1.04,0.32,0.01,-0.09,100382.401
2022-04-27 11:44:31.4410,0.065,-0.086,-0.075,-1.91,-8.61,0.23,0.37,0.05,-0.06,100382.401
2022-04-27 11:44:31.4510,-0.021,-0.018,-0.071,-1.03,-9.34,0.02,0.49,0.03,-0.09,100382.401
2022-04-27 11:44:31.4620,-0.017,0.049,-0.079,-0.73,-9.99,0.19,0.64,-0.03,-0.06,100382.401
2022-04-27 11:44:31.4710,0.01,0.068,-0.065,-1.01,-10.44,0.19,0.71,-0.14,0.01,100382.401
2022-04-27 11:44:31.4810,0.021,0.029,0.002,-1.17,-10.22,-0.17,0.68,-0.26,0.1,100382.401
2022-04-27 11:44:31.4910,0.027,-0.018,0.094,-1.24,-9.74,-1.02,0.54,-0.37,0.18,100382.401
2022-04-27 11:44:31.5010,0.025,-0.059,0.107,-1.3,-9.33,-1.46,0.54,-0.37,0.18,100382.401
2022-04-27 11:44:31.5110,-0.004,-0.102,0.076,-1.12,-8.92,-1.15,0.35,-0.44,0.23,100382.401
2022-04-27 11:44:31.5210,-0.046,-0.118,0.101,-0.78,-8.6,-1.15,-0.16,-0.45,0.14,100382.401
2022-04-27 11:44:31.5310,-0.08,-0.092,0.089,-0.37,-8.7,-1.3,-0.4,-0.44,0.04,100382.401
2022-04-27 11:44:31.5410,-0.072,-0.017,0.051,-0.29,-9.31,-0.88,-0.43,-0.29,-0.05,100382.401
2022-04-27 11:44:31.5510,-0.004,0.014,-0.016,-0.76,-9.76,-0.62,-0.42,-0.22,-0.1,100382.401
2022-04-27 11:44:31.5610,0.033,0.097,-0.079,-1.31,-10.36,0.23,-0.29,-0.05,-0.12,100382.401
2022-04-27 11:44:31.5710,0.107,0.141,-0.106,-1.74,-11.08,0.4,-0.19,-0.09,-0.0,100382.401
2022-04-27 11:44:31.5810,0.131,0.167,-0.14,-2.46,-11.26,0.95,-0.19,-0.09,-0.0,100382.401
2022-04-27 11:44:31.5910,0.023,0.185,-0.109,-1.76,-11.51,0.66,0.08,-0.26,0.15,100382.401
2022-04-27 11:44:31.6010,-0.098,0.212,-0.146,-0.5,-11.75,0.76,0.26,-0.34,0.18,100382.401
2022-04-27 11:44:31.6110,-0.12,0.192,-0.18,0.13,-11.75,1.32,0.4,-0.34,0.19,100382.401
2022-04-27 11:44:31.6200,-0.043,0.162,-0.126,-0.34,-11.44,1.05,0.47,-0.29,0.2,100382.401
2022-04-27 11:44:31.6300,0.057,0.124,-0.098,-1.34,-11.09,0.7,0.45,0.07,0.36,100382.401
2022-04-27 11:44:31.6400,0.161,0.139,-0.037,-2.37,-11.19,0.08,0.65,-0.01,0.35,100382.401
2022-04-27 11:44:31.6500,0.225,-0.086,-0.147,-3.24,-9.68,1.09,0.61,0.08,0.42,100382.401
2022-04-27 11:44:31.6600,0.167,0.019,-0.006,-3.3,-9.23,0.32,0.61,0.08,0.42,100382.401
2022-04-27 11:44:31.6700,-0.044,0.01,-0.055,-1.7,-10.22,0.06,0.56,0.24,0.51,100382.401
2022-04-27 11:44:31.6800,-0.154,0.017,-0.021,0.08,-9.55,0.55,0.56,0.04595417529344559,0.48,100382.401
2022-04-27 11:44:31.6900,-0.081,-0.091,-0.123,-0.29,-9.69,0.55,0.68,0.05,0.48,100382.401
2022-04-27 11:44:31.7000,-0.079,-0.025,-0.105,-0.76,-8.55,1.39,0.7,-0.06,0.36,100382.401
2022-04-27 11:44:31.7100,-0.114,0.052,-0.134,-0.38,-10.56,1.14,0.91,0.0,0.16,100382.401
2022-04-27 11:44:31.7200,-0.071,-0.192,-0.132,-0.56,-8.71,1.74,0.92,0.03,0.09,100382.401
2022-04-27 11:44:31.7300,-0.08,-0.341,-0.054,-0.85,-6.76,1.0,0.87,0.03,0.01,100382.401
2022-04-27 11:44:31.7400,-0.164,-0.434,-0.054,-0.19,-5.79,0.87,0.7,0.08,-0.14,100382.401
2022-04-27 11:44:31.7500,-0.233,-0.469,-0.126,0.58,-5.1,1.39,0.46,0.14,-0.33,100382.401
2022-04-27 11:44:31.7600,-0.335,-0.469,-0.068,1.47,-5.13,1.59,0.12,0.06,-0.55,100382.401
2022-04-27 11:44:31.7690,-0.367,-0.462,0.119,2.24,-5.15,0.07,-0.24,-0.07,-0.7,100382.401
2022-04-27 11:44:31.7800,-0.255,-0.534,0.289,1.77,-4.87,-1.73,-0.36,-0.04,-0.78,100382.401
2022-04-27 11:44:31.7900,0.009,-0.675,0.416,-0.18,-3.71,-3.2,-0.35,-0.07,-0.54,100382.401
2022-04-27 11:44:31.7990,0.358,-0.951,0.524,-3.5,-1.52,-4.3,-0.35,-0.07,-0.54,100382.401
2022-04-27 11:44:31.8090,0.51,-1.072,0.72,-5.92,0.64,-5.91,-0.32,-0.14,0.58,100382.401
2022-04-27 11:44:31.8200,0.267,-1.129,0.552,-5.32,1.21,-5.81,-0.26,0.57,0.92,100382.401
2022-04-27 11:44:31.8290,-0.108,-1.043,0.303,-1.17,1.03,-4.67,-0.26,0.57,0.92,100382.401
2022-04-27 11:44:31.8390,-0.439,-0.761,-0.045,1.59,-1.21,0.6,-0.3,-0.08,0.52,100382.401
2022-04-27 11:44:31.8490,-0.425,-0.887,-0.002,3.49,-2.19,-0.17,-0.48,0.11,0.15,100382.401
2022-04-27 11:44:31.8590,-0.174,-1.207,-0.14,1.31,1.11,1.5,0.27,0.08,0.09,100382.401
2022-04-27 11:44:31.8690,0.083,-1.512,0.073,-1.43,4.02,0.52,0.38,-0.12,0.24,100382.401
2022-04-27 11:44:31.8800,0.105,-1.557,0.374,-2.68,5.9,-2.35,0.38,-0.12,0.24,100382.401
2022-04-27 11:44:31.8890,-0.065,-1.392,0.653,-1.48,4.48,-5.15,0.26,-0.26,0.24,100382.401
2022-04-27 11:44:31.8990,-0.188,-1.03,0.669,0.03,2.16,-6.71,-0.36,-0.55,-0.14,100382.401
2022-04-27 11:44:31.9090,-0.162,-0.901,0.48,0.48,-1.43,-5.15,-0.36,-0.55,-0.14,100382.401
2022-04-27 11:44:31.9190,-0.11,-1.22,0.151,-0.25,1.28,-2.64,-0.33,-0.75,-0.31,100382.401
2022-04-27 11:44:31.9290,-0.123,-1.374,-0.139,-0.27,3.48,0.74,-0.03,-0.7,-0.3,100382.401
2022-04-27 11:44:31.9390,-0.156,-1.393,-0.104,0.08,3.65,1.91,-0.03,-0.7,-0.3,100382.401
2022-04-27 11:44:31.9490,-0.188,-1.561,0.192,0.29,5.24,-0.68,-0.04,-0.7,-0.3,100382.401
2022-04-27 11:44:31.9590,-0.351,-1.538,0.407,1.53,5.31,-2.94,-0.21,-0.84,-0.36,100382.401
2022-04-27 11:44:31.9680,-0.427,-1.704,0.635,2.86,6.22,-5.35,-0.49,-0.85,-0.46,100382.401
2022-04-27 11:44:31.9780,-0.351,-1.848,0.646,2.75,7.98,-6.6,-0.86,-0.67,-0.51,100382.401
2022-04-27 11:44:31.9880,-0.141,-1.946,0.384,1.05,8.88,-4.95,-1.15,-0.04,-0.24,100382.401
2022-04-27 11:44:31.9990,0.063,-2.341,0.232,-0.9,10.86,-2.07,-1.81,1.11,-0.09,100382.401
2022-04-27 11:44:32.0040,0.28,-3.984,0.921,-3.73,22.41,-6.67,-1.81,1.11,-0.09,100382.401
2022-04-27 11:44:32.0190,-0.174,-3.428,0.152,0.07,31.0,-6.36,-1.94,-0.3,0.3,100382.401
2022-04-27 11:44:32.0280,-0.97,1.045,0.989,4.52,-4.45,-1.78,-0.22,-0.9,1.48,100382.401
2022-04-27 11:44:32.0380,0.451,-0.234,2.471,1.8,-19.14,-25.21,-0.85,2.27,0.88,100382.401
2022-04-27 11:44:32.0480,1.029,-3.284,1.111,-13.36,13.85,-16.02,-1.68,-1.04,1.09,100382.401
2022-04-27 11:44:32.0580,-0.982,-1.522,0.677,3.86,19.72,-7.83,-2.77,-0.69,0.44,100382.401
2022-04-27 11:44:32.0680,1.282,0.335,-0.272,-5.16,-14.27,-3.69,-1.9,-0.65,1.04,100382.401
2022-04-27 11:44:32.0780,0.9,-1.002,-1.063,-14.9,-2.89,7.78,-1.02,-0.23,0.9,100382.401
2022-04-27 11:44:32.0880,-0.328,-0.863,-0.494,-2.01,0.06,5.65,-1.02,-0.23,0.9,100382.401
2022-04-27 11:44:32.0980,-0.489,-1.059,-0.285,3.11,-0.62,2.42,-1.05,-0.46,-0.02,100382.401
2022-04-27 11:44:32.1080,-1.052,-1.473,-0.539,6.4,3.22,-0.52,-1.05,-0.46,-0.02,100382.401
2022-04-27 11:44:32.1180,-0.723,-1.904,-1.343,7.57,8.4,11.73,1.76,0.48,-0.48,100382.401
2022-04-27 11:44:32.1300,-0.806,-1.736,-0.506,4.98,8.28,6.22,2.0,1.04,-0.74,100382.401
2022-04-27 11:44:32.1380,-0.905,-1.304,-0.534,7.41,4.43,3.16,2.0,1.04,-0.74,100382.401
2022-04-27 11:44:32.1470,-0.464,-1.336,-0.12,5.6,3.45,3.31,2.42,-0.15,-1.13,100382.401
2022-04-27 11:44:32.1600,0.266,-1.055,0.264,-2.01,1.97,-4.04,1.78,-0.1,-0.81,100382.401
2022-04-27 11:44:32.1670,0.324,-0.727,0.054,-4.33,-1.44,-0.73,1.34,0.11,-0.29,100382.401
2022-04-27 11:44:32.1770,0.609,-0.705,0.456,-5.96,-3.55,-3.93,0.98,0.08,0.18,100382.401
2022-04-27 11:44:32.1870,0.552,-1.324,0.027,-7.84,0.84,-3.56,0.98,0.08,0.18,100382.401
2022-04-27 11:44:32.1970,0.095,-1.21,-0.233,-3.53,3.76,2.75,1.51,0.23,0.28,100382.401
2022-04-27 11:44:32.2070,-0.046,-0.904,0.197,-1.24,-0.28,-0.87,1.58,0.15,0.56,100382.401
2022-04-27 11:44:32.2170,-0.308,-0.917,0.241,0.48,-0.63,-2.64,1.52,0.21,0.42,100382.401
2022-04-27 11:44:32.2270,-0.397,-0.861,-0.073,2.56,-1.43,-0.46,1.52,0.21,0.42,100382.401
2022-04-27 11:44:32.2370,-0.284,-1.097,-0.021,1.85,0.03,1.4,1.62,0.0,-0.03,100382.401
2022-04-27 11:44:32.2470,-0.202,-1.18,0.208,0.73,2.0,-1.22,1.82,-0.13,-0.07,100382.401
2022-04-27 11:44:32.2570,-0.169,-1.267,0.215,0.45,1.99,-1.31,2.0,0.07,-0.06,100382.401
2022-04-27 11:44:32.2670,-0.042,-1.489,0.264,-0.53,4.28,-1.74,1.82,0.0,0.05,100382.401
2022-04-27 11:44:32.2770,0.034,-1.345,0.451,-1.5,4.47,-2.5,1.56,-0.02,0.11,100382.401
2022-04-27 11:44:32.2870,-0.063,-1.214,0.474,-1.4,2.36,-3.73,1.56,-0.02,0.11,100382.401
2022-04-27 11:44:32.2970,-0.189,-1.327,0.473,0.1,3.1,-3.2,1.05,-0.03,0.1,100382.401
2022-04-27 11:44:32.3070,-0.233,-1.22,0.403,0.73,2.88,-3.24,1.0,0.04,0.09,100382.401
2022-04-27 11:44:32.3170,-0.155,-1.202,0.366,0.59,2.05,-1.85,0.76,-0.01,0.15,100407.99
2022-04-27 11:44:32.3270,-0.081,-1.155,0.474,-0.79,1.87,-3.19,0.8,-0.02,0.12,100407.99
2022-04-27 11:44:32.3370,-0.221,-1.077,0.497,0.24,1.71,-2.91,0.76,-0.13,0.06,100407.99
2022-04-27 11:44:32.3470,-0.193,-1.006,0.415,0.39,0.38,-2.78,0.76,-0.13,0.06,100407.99
2022-04-27 11:44:32.3570,-0.209,-0.947,0.29,0.58,0.18,-1.6,0.83,-0.14,-0.18,100407.99
2022-04-27 11:44:32.3660,-0.153,-0.914,0.235,0.09,-0.7,-0.48,0.83,-0.14,-0.18,100407.99
2022-04-27 11:44:32.3760,-0.428,-1.093,0.322,1.62,0.09,-1.07,0.74,-0.33,-0.39,100407.99
2022-04-27 11:44:32.3860,-0.218,-1.573,0.578,2.58,4.49,-1.98,0.64,-0.19,-0.19,100407.99
2022-04-27 11:44:32.3960,0.161,-1.512,0.624,-2.41,5.88,-5.29,0.64,-0.19,-0.19,100407.99
2022-04-27 11:44:32.4060,-0.016,-1.475,0.193,-2.06,5.17,-0.93,0.78,-0.28,-0.03,100407.99
2022-04-27 11:44:32.4160,-0.101,-1.145,0.211,-0.31,3.21,0.47,0.87,-0.48,-0.1,100407.99
2022-04-27 11:44:32.4260,-0.125,-0.884,0.308,-0.26,-0.05,-0.38,0.87,-0.48,-0.1,100407.99
2022-04-27 11:44:32.4360,-0.14,-0.792,0.334,0.12,-1.37,-0.96,0.79,-0.49,-0.18,100407.99
2022-04-27 11:44:32.4460,-0.111,-0.741,0.309,-0.08,-2.21,-0.58,0.96,-0.2,-0.36,100407.99
2022-04-27 11:44:32.4560,-0.057,-0.874,0.336,-0.31,-1.34,-0.65,1.03,-0.06,-0.26,100407.99
2022-04-27 11:44:32.4660,0.076,-0.919,0.387,-1.46,-0.55,-0.86,0.99,0.04,-0.01,100407.99
2022-04-27 11:44:32.4760,0.229,-0.963,0.456,-2.91,0.15,-1.72,0.99,0.04,-0.01,100407.99
2022-04-27 11:44:32.4850,0.259,-1.025,0.402,-3.72,0.22,-1.31,0.99,0.02,0.17,100407.99
2022-04-27 11:44:32.4950,0.179,-1.098,0.386,-3.5,1.39,-0.73,1.04,-0.19,0.37,100407.99
2022-04-27 11:44:32.5050,-0.017,-1.134,0.438,-1.83,1.71,-1.36,0.96,-0.29,0.42,100407.99
2022-04-27 11:44:32.5150,-0.167,-1.123,0.371,-0.09,1.89,-0.73,0.97,-0.35,0.37,100407.99
2022-04-27 11:44:32.5250,-0.204,-1.15,0.365,0.73,1.91,-0.34,1.13,-0.37,0.29,100407.99
2022-04-27 11:44:32.5350,-0.124,-1.159,0.429,0.18,2.3,-0.53,1.19,-0.29,0.37,100407.99
2022-04-27 11:44:32.5460,-0.141,-1.141,0.573,-0.15,2.15,-1.66,1.29,-0.2,0.41,100407.99
2022-04-27 11:44:32.5550,-0.202,-1.097,0.634,0.53,1.82,-2.92,1.29,-0.2,0.41,100407.99
2022-04-27 11:44:32.5650,-0.145,-1.142,0.342,0.2,2.0,-0.73,1.53,-0.14,0.49,100407.99
2022-04-27 11:44:32.5750,-0.164,-1.155,0.43,0.08,2.48,0.42,1.67,-0.09,0.52,100407.99
2022-04-27 11:44:32.5850,-0.134,-1.043,0.601,-0.09,1.87,-1.54,1.71,-0.08,0.45,100407.99
2022-04-27 11:44:32.5950,-0.202,-0.948,0.651,0.13,0.75,-2.22,1.45,-0.24,0.42,100407.99
2022-04-27 11:44:32.6050,-0.287,-0.954,0.628,1.0,0.54,-2.02,1.45,-0.24,0.42,100407.99
2022-04-27 11:44:32.6150,-0.317,-0.941,0.606,1.5,0.73,-1.69,1.38,-0.39,0.34,100407.99
2022-04-27 11:44:32.6250,-0.278,-0.894,0.626,1.43,0.31,-1.52,1.36,-0.69,0.28,100407.99
2022-04-27 11:44:32.6350,-0.224,-0.919,0.65,0.7,0.31,-1.71,1.39,-0.74,0.25,100407.99
2022-04-27 11:44:32.6450,-0.264,-0.971,0.69,0.92,0.9,-1.88,1.39,-0.74,0.25,100407.99
2022-04-27 11:44:32.6560,-0.257,-0.983,0.728,1.09,1.22,-2.17,1.43,-0.68,0.21,100407.99
2022-04-27 11:44:32.6640,-0.181,-1.024,0.739,0.64,1.52,-2.24,1.49,-0.64,0.14,100407.99
2022-04-27 11:44:32.6750,-0.066,-1.057,0.762,-0.44,2.11,-2.26,1.52,-0.59,0.14,100407.99
2022-04-27 11:44:32.6840,0.01,-1.037,0.794,-1.36,2.03,-2.42,1.48,-0.54,0.2,100407.99
2022-04-27 11:44:32.6940,0.031,-1.063,0.738,-1.72,2.25,-2.22,1.42,-0.65,0.23,100407.99
2022-04-27 11:44:32.7040,0.09,-1.045,0.73,-2.03,2.33,-1.46,1.4,-0.53,0.32,100407.99
2022-04-27 11:44:32.7140,0.101,-0.981,0.771,-2.56,2.03,-1.97,1.31,-0.58,0.37,100407.99
2022-04-27 11:44:32.7240,0.018,-0.924,0.73,-1.97,1.37,-1.57,1.31,-0.58,0.37,100407.99
2022-04-27 11:44:32.7340,-0.077,-0.865,0.723,-0.99,1.0,-1.24,1.2,-0.66,0.34,100407.99
2022-04-27 11:44:32.7440,-0.131,-0.799,0.761,-0.3,0.28,-1.44,1.02,-0.8,0.32,100407.99
2022-04-27 11:44:32.7540,-0.188,-0.802,0.757,0.26,0.18,-1.42,0.8,-1.05,0.12,100407.99
2022-04-27 11:44:32.7640,-0.25,-0.786,0.75,0.86,0.27,-1.4,0.79,-1.11,-0.04,100407.99
2022-04-27 11:44:32.7750,-0.284,-0.747,0.744,1.54,-0.11,-1.08,0.79,-1.11,-0.04,100407.99
2022-04-27 11:44:32.7840,-0.312,-0.74,0.802,1.75,-0.31,-1.42,0.72,-1.18,-0.23,100407.99
2022-04-27 11:44:32.7940,-0.307,-0.761,0.826,2.05,-0.03,-1.84,0.65,-1.18,-0.41,100407.99
2022-04-27 11:44:32.8040,-0.215,-0.759,0.834,1.62,0.03,-1.83,0.4,-1.2,-0.74,100407.99
2022-04-27 11:44:32.8140,-0.093,-0.724,0.831,0.52,-0.3,-1.89,0.41,-1.25,-0.83,100407.99
2022-04-27 11:44:32.8240,0.001,-0.871,0.793,-0.43,0.4,-1.44,0.41,-1.25,-0.83,100407.99
2022-04-27 11:44:32.8330,0.074,-0.997,0.761,-0.88,2.16,-1.29,0.38,-1.28,-0.72,100407.99
2022-04-27 11:44:32.8440,0.197,-0.968,0.768,-1.97,2.25,-0.81,0.36,-1.14,-0.6,100407.99
2022-04-27 11:44:32.8540,0.196,-0.94,0.775,-2.37,1.91,-1.33,0.36,-1.05,-0.48,100407.99
2022-04-27 11:44:32.8640,0.13,-0.93,0.735,-1.66,1.94,-0.72,0.37,-0.99,-0.43,100407.99
2022-04-27 11:44:32.8730,0.103,-0.825,0.747,-1.14,1.2,-0.76,0.37,-0.99,-0.43,100407.99
2022-04-27 11:44:32.8830,0.067,-0.759,0.746,-0.82,0.31,-0.77,0.44,-0.9,-0.36,100407.99
2022-04-27 11:44:32.8930,0.065,-0.747,0.737,-0.44,0.1,-0.64,0.44,-0.9,-0.36,100407.99
2022-04-27 11:44:32.9030,0.094,-0.727,0.753,-0.67,-0.01,-0.65,0.53,-0.74,-0.29,100407.99
2022-04-27 11:44:32.9130,0.106,-0.727,0.764,-0.74,-0.08,-0.82,0.53,-0.74,-0.29,100407.99
2022-04-27 11:44:32.9230,0.124,-0.727,0.766,-0.88,-0.02,-0.8,0.55,-0.69,-0.24,100407.99
2022-04-27 11:44:32.9330,0.081,-0.71,0.767,-0.66,-0.08,-0.78,0.55,-0.65,-0.22,100407.99
2022-04-27 11:44:32.9430,0.007,-0.724,0.774,0.11,-0.11,-0.77,0.44,-0.73,-0.33,100407.99
2022-04-27 11:44:32.9530,-0.029,-0.752,0.768,0.7,0.27,-0.84,0.38,-0.79,-0.41,100407.99
2022-04-27 11:44:32.9630,-0.035,-0.746,0.736,0.93,0.32,-0.47,0.33,-0.83,-0.48,100407.99
2022-04-27 11:44:32.9730,-0.017,-0.736,0.748,0.95,0.27,-0.43,0.33,-0.83,-0.48,100407.99
2022-04-27 11:44:32.9830,0.037,-0.724,0.751,0.64,0.15,-0.55,0.26,-0.85,-0.54,100407.99
2022-04-27 11:44:32.9930,0.114,-0.715,0.734,0.02,0.11,-0.39,0.21,-0.85,-0.58,100407.99
2022-04-27 11:44:33.0030,0.17,-0.692,0.738,-0.5,-0.08,-0.36,0.09,-0.89,-0.6,100407.99
2022-04-27 11:44:33.0130,0.223,-0.674,0.738,-0.93,-0.25,-0.42,0.06,-0.9,-0.58,100407.99
2022-04-27 11:44:33.0230,0.266,-0.659,0.714,-1.3,-0.42,-0.25,0.06,-0.9,-0.58,100407.99
2022-04-27 11:44:33.0330,0.292,-0.648,0.718,-1.53,-0.52,-0.14,0.07,-0.95,-0.43,100407.99
2022-04-27 11:44:33.0420,0.286,-0.646,0.728,-1.51,-0.58,-0.32,0.09,-0.98,-0.41,100407.99
2022-04-27 11:44:33.0520,0.246,-0.639,0.713,-1.12,-0.57,-0.22,0.17,-0.98,-0.4,100407.99
2022-04-27 11:44:33.0630,0.235,-0.614,0.703,-0.75,-0.77,-0.12,0.27,-0.99,-0.4,100407.99
2022-04-27 11:44:33.0730,0.239,-0.606,0.709,-0.71,-0.91,-0.06,0.27,-0.99,-0.4,100407.99
2022-04-27 11:44:33.0820,0.239,-0.624,0.715,-0.58,-0.81,-0.22,0.32,-1.0,-0.41,100407.99
2022-04-27 11:44:33.0930,0.259,-0.658,0.705,-0.63,-0.46,-0.11,0.38,-1.08,-0.33,100407.99
2022-04-27 11:44:33.1020,0.273,-0.668,0.707,-0.71,-0.24,-0.08,0.38,-1.08,-0.33,100407.99
2022-04-27 11:44:33.1120,0.283,-0.694,0.711,-0.71,-0.04,-0.12,0.38,-1.06,-0.2,100407.99
2022-04-27 11:44:33.1220,0.292,-0.703,0.716,-0.74,0.2,-0.17,0.38,-1.06,-0.17,100407.99
2022-04-27 11:44:33.1320,0.28,-0.693,0.723,-0.62,0.15,-0.17,0.35,-1.05,-0.16,100407.99
2022-04-27 11:44:33.1420,0.268,-0.706,0.755,-0.36,0.22,-0.47,0.35,-1.05,-0.16,100407.99
2022-04-27 11:44:33.1520,0.273,-0.713,0.754,-0.31,0.36,-0.6,0.32,-1.05,-0.15,100407.99
2022-04-27 11:44:33.1620,0.281,-0.71,0.748,-0.29,0.37,-0.5,0.29,-1.06,-0.17,100407.99
2022-04-27 11:44:33.1730,0.289,-0.708,0.76,-0.29,0.38,-0.59,0.29,-1.06,-0.17,100407.99
2022-04-27 11:44:33.1820,0.295,-0.694,0.759,-0.26,0.32,-0.65,0.25,-1.1,-0.23,100407.99
2022-04-27 11:44:33.1920,0.31,-0.673,0.767,-0.28,0.15,-0.68,0.25,-1.1,-0.23,100407.99
2022-04-27 11:44:33.2020,0.332,-0.652,0.768,-0.38,-0.06,-0.75,0.25,-1.05,-0.27,100407.99
2022-04-27 11:44:33.2120,0.363,-0.645,0.772,-0.57,-0.13,-0.79,0.25,-1.05,-0.27,100407.99
2022-04-27 11:44:33.2230,0.392,-0.634,0.778,-0.79,-0.21,-0.84,0.24,-1.01,-0.27,100407.99
2022-04-27 11:44:33.2310,0.411,-0.633,0.787,-0.94,-0.25,-0.97,0.22,-0.94,-0.25,100407.99
2022-04-27 11:44:33.2410,0.427,-0.627,0.783,-1.01,-0.24,-0.98,0.2,-0.91,-0.23,100407.99
2022-04-27 11:44:33.2510,0.442,-0.622,0.777,-1.1,-0.3,-0.94,0.18,-0.9,-0.21,100407.99
2022-04-27 11:44:33.2610,0.453,-0.615,0.759,-1.15,-0.3,-0.84,0.17,-1.01,-0.18,100407.99
2022-04-27 11:44:33.2710,0.46,-0.601,0.743,-1.15,-0.45,-0.69,0.17,-1.01,-0.18,100407.99
2022-04-27 11:44:33.2810,0.466,-0.595,0.728,-1.13,-0.49,-0.52,0.17,-1.09,-0.19,100557.083
2022-04-27 11:44:33.2910,0.468,-0.592,0.744,-1.07,-0.53,-0.64,0.13,-1.14,-0.21,100557.083
2022-04-27 11:44:33.3010,0.489,-0.59,0.718,-1.1,-0.46,-0.61,0.09,-1.16,-0.21,100557.083
2022-04-27 11:44:33.3110,0.52,-0.573,0.705,-1.29,-0.68,-0.4,0.04,-1.23,-0.19,100557.083
2022-04-27 11:44:33.3210,0.539,-0.581,0.678,-1.44,-0.66,-0.28,0.0,-1.36,-0.15,100557.083
2022-04-27 11:44:33.3310,0.541,-0.587,0.669,-1.44,-0.55,-0.16,-0.04,-1.49,-0.1,100557.083
2022-04-27 11:44:33.3410,0.53,-0.585,0.667,-1.24,-0.58,-0.17,-0.04,-1.49,-0.1,100557.083
2022-04-27 11:44:33.3510,0.535,-0.58,0.671,-1.14,-0.58,-0.27,-0.01,-1.48,-0.09,100557.083
2022-04-27 11:44:33.3610,0.526,-0.579,0.673,-1.03,-0.65,-0.36,0.01,-1.43,-0.1,100557.083
2022-04-27 11:44:33.3710,0.503,-0.596,0.667,-0.74,-0.51,-0.4,0.01,-1.43,-0.1,100557.083
2022-04-27 11:44:33.3800,0.489,-0.597,0.657,-0.47,-0.43,-0.36,0.01,-1.33,-0.22,100557.083
2022-04-27 11:44:33.3900,0.475,-0.611,0.65,-0.24,-0.35,-0.32,0.01,-1.33,-0.22,100557.083
2022-04-27 11:44:33.4000,0.47,-0.614,0.65,-0.06,-0.23,-0.41,-0.02,-1.32,-0.3,100557.083
2022-04-27 11:44:33.4100,0.468,-0.62,0.63,0.07,-0.25,-0.35,-0.08,-1.37,-0.38,100557.083
2022-04-27 11:44:33.4200,0.47,-0.651,0.603,0.19,0.04,-0.15,-0.14,-1.46,-0.44,100557.083
2022-04-27 11:44:33.4300,0.497,-0.669,0.592,0.16,0.26,-0.04,-0.18,-1.53,-0.46,100557.083
2022-04-27 11:44:33.4400,0.545,-0.682,0.596,-0.15,0.43,-0.15,-0.22,-1.58,-0.43,100557.083
2022-04-27 11:44:33.4500,0.592,-0.67,0.594,-0.52,0.42,-0.28,-0.23,-1.58,-0.38,100557.083
2022-04-27 11:44:33.4600,0.626,-0.652,0.564,-0.79,0.22,-0.16,-0.18,-1.52,-0.23,100557.083
2022-04-27 11:44:33.4700,0.653,-0.649,0.535,-0.99,0.15,0.06,-0.18,-1.52,-0.23,100557.083
2022-04-27 11:44:33.4800,0.658,-0.647,0.525,-1.05,0.14,0.14,-0.09,-1.4,-0.06,100557.083
2022-04-27 11:44:33.4900,0.644,-0.634,0.52,-0.89,0.06,0.11,-0.06,-1.35,-0.02,100557.083
2022-04-27 11:44:33.5010,0.623,-0.624,0.512,-0.62,-0.07,0.1,-0.04,-1.3,-0.01,100557.083
2022-04-27 11:44:33.5100,0.603,-0.608,0.506,-0.35,-0.19,0.06,-0.04,-1.3,-0.01,100557.083
2022-04-27 11:44:33.5200,0.596,-0.596,0.477,-0.16,-0.35,0.22,-0.04,-1.27,-0.03,100557.083
2022-04-27 11:44:33.5300,0.595,-0.587,0.479,-0.07,-0.42,0.25,-0.06,-1.27,-0.04,100557.083
2022-04-27 11:44:33.5400,0.608,-0.585,0.483,-0.07,-0.5,0.15,-0.08,-1.24,-0.04,100557.083
2022-04-27 11:44:33.5500,0.616,-0.584,0.49,-0.14,-0.49,-0.07,-0.09,-1.2,-0.06,100557.083
2022-04-27 11:44:33.5600,0.63,-0.589,0.481,-0.16,-0.5,-0.04,-0.09,-1.2,-0.06,100557.083
2022-04-27 11:44:33.5700,0.657,-0.603,0.494,-0.34,-0.35,-0.18,-0.15,-1.25,-0.07,100557.083
2022-04-27 11:44:33.5790,0.678,-0.609,0.492,-0.51,-0.28,-0.36,-0.19,-1.32,-0.06,100557.083
2022-04-27 11:44:33.5890,0.701,-0.617,0.456,-0.66,-0.22,-0.2,-0.19,-1.32,-0.06,100557.083
2022-04-27 11:44:33.5990,0.722,-0.627,0.409,-0.83,-0.12,0.17,-0.2,-1.42,-0.04,100557.083
2022-04-27 11:44:33.6090,0.734,-0.631,0.396,-0.89,-0.06,0.34,-0.21,-1.5,-0.01,100557.083
2022-04-27 11:44:33.6190,0.743,-0.619,0.398,-0.94,-0.12,0.2,-0.2,-1.51,0.04,100557.083
2022-04-27 11:44:33.6290,0.753,-0.591,0.367,-0.97,-0.4,0.27,-0.2,-1.51,0.04,100557.083
2022-04-27 11:44:33.6390,0.755,-0.58,0.342,-0.97,-0.57,0.48,-0.16,-1.46,0.06,100557.083
2022-04-27 11:44:33.6490,0.757,-0.578,0.324,-0.93,-0.62,0.57,-0.04,-1.18,0.05,100557.083
2022-04-27 11:44:33.6590,0.768,-0.582,0.322,-0.96,-0.61,0.58,-0.04,-1.18,0.05,100557.083
2022-04-27 11:44:33.6690,0.785,-0.59,0.322,-1.07,-0.55,0.49,0.05,-0.91,0.08,100557.083
2022-04-27 11:44:33.6790,0.801,-0.599,0.321,-1.22,-0.45,0.47,0.07,-0.86,0.12,100557.083
2022-04-27 11:44:33.6890,0.805,-0.597,0.331,-1.28,-0.44,0.34,0.07,-0.86,0.12,100557.083
2022-04-27 11:44:33.6990,0.792,-0.583,0.336,-1.21,-0.55,0.2,0.1,-0.95,0.21,100557.083
2022-04-27 11:44:33.7090,0.752,-0.572,0.328,-0.9,-0.69,0.19,0.12,-1.0,0.24,100557.083
2022-04-27 11:44:33.7190,0.706,-0.573,0.315,-0.41,-0.75,0.23,0.14,-1.03,0.25,100557.083
2022-04-27 11:44:33.7290,0.662,-0.575,0.312,0.01,-0.7,0.28,0.14,-1.03,0.25,100557.083
2022-04-27 11:44:33.7390,0.598,-0.565,0.326,0.61,-0.78,0.13,0.15,-0.81,0.2,100557.083
2022-04-27 11:44:33.7490,0.572,-0.546,0.361,1.09,-0.95,-0.16,0.16,-0.66,0.14,100557.083
2022-04-27 11:44:33.7580,0.598,-0.541,0.376,0.99,-1.1,-0.5,0.16,-0.64,0.11,100557.083
2022-04-27 11:44:33.7690,0.613,-0.579,0.373,0.75,-0.89,-0.54,0.19,-0.61,0.09,100557.083
2022-04-27 11:44:33.7780,0.621,-0.62,0.366,0.74,-0.42,-0.52,0.19,-0.61,0.09,100557.083
2022-04-27 11:44:33.7880,0.674,-0.647,0.325,0.39,-0.14,-0.28,0.28,-0.68,0.14,100557.083
2022-04-27 11:44:33.7980,0.709,-0.674,0.283,-0.11,0.15,0.17,0.28,-0.68,0.14,100557.083
2022-04-27 11:44:33.8080,0.71,-0.674,0.256,-0.15,0.24,0.42,0.36,-0.68,0.19,100557.083
2022-04-27 11:44:33.8180,0.734,-0.661,0.244,-0.28,0.16,0.61,0.36,-0.68,0.19,100557.083
2022-04-27 11:44:33.8280,0.77,-0.644,0.265,-0.61,-0.01,0.47,0.39,-0.56,0.15,100557.083
2022-04-27 11:44:33.8380,0.814,-0.629,0.274,-0.99,-0.16,0.33,0.39,-0.49,0.14,100557.083
2022-04-27 11:44:33.8480,0.862,-0.615,0.288,-1.47,-0.3,0.19,0.39,-0.49,0.14,100557.083
2022-04-27 11:44:33.8580,0.895,-0.606,0.304,-1.84,-0.43,0.04,0.3,-0.42,0.23,100557.083
2022-04-27 11:44:33.8680,0.915,-0.618,0.312,-2.1,-0.4,-0.1,0.3,-0.42,0.23,100557.083
2022-04-27 11:44:33.8780,0.908,-0.64,0.328,-2.12,-0.22,-0.19,0.25,-0.39,0.3,100557.083
2022-04-27 11:44:33.8880,0.903,-0.662,0.344,-2.06,-0.01,-0.44,0.19,-0.36,0.37,100557.083
2022-04-27 11:44:33.8980,0.88,-0.681,0.333,-1.98,0.16,-0.39,0.15,-0.37,0.46,100557.083
2022-04-27 11:44:33.9080,0.814,-0.686,0.334,-1.5,0.26,-0.37,0.11,-0.29,0.58,100557.083
2022-04-27 11:44:33.9170,0.744,-0.684,0.329,-0.79,0.18,-0.38,0.11,-0.3,0.59,100557.083
2022-04-27 11:44:33.9270,0.697,-0.693,0.318,-0.3,0.2,-0.29,0.11,-0.3,0.58,100557.083
2022-04-27 11:44:33.9380,0.653,-0.691,0.313,0.1,0.21,-0.2,0.1,-0.29,0.53,100557.083
2022-04-27 11:44:33.9470,0.622,-0.679,0.32,0.46,0.08,-0.3,0.09,-0.31,0.47,100557.083
2022-04-27 11:44:33.9570,0.616,-0.671,0.296,0.58,-0.05,-0.21,0.07,-0.34,0.4,100557.083
2022-04-27 11:44:33.9670,0.623,-0.669,0.266,0.54,-0.11,0.11,0.07,-0.36,0.34,100557.083
2022-04-27 11:44:33.9770,0.649,-0.664,0.257,0.36,-0.17,0.24,0.07,-0.36,0.34,100557.083
2022-04-27 11:44:33.9870,0.694,-0.661,0.249,-0.05,-0.22,0.3,0.04,-0.35,0.29,100557.083
2022-04-27 11:44:33.9970,0.739,-0.656,0.244,-0.51,-0.3,0.33,0.04,-0.35,0.29,100557.083
2022-04-27 11:44:34.0070,0.785,-0.654,0.228,-0.97,-0.33,0.4,0.06,-0.33,0.31,100557.083
2022-04-27 11:44:34.0170,0.826,-0.657,0.205,-1.42,-0.35,0.63,0.09,-0.31,0.36,100557.083
2022-04-27 11:44:34.0270,0.85,-0.666,0.196,-1.74,-0.31,0.77,0.14,-0.3,0.52,100557.083
2022-04-27 11:44:34.0370,0.861,-0.68,0.204,-1.92,-0.22,0.72,0.16,-0.31,0.61,100557.083
2022-04-27 11:44:34.0470,0.861,-0.693,0.208,-2.0,-0.11,0.65,0.19,-0.33,0.7,100557.083
2022-04-27 11:44:34.0570,0.845,-0.697,0.208,-1.93,-0.08,0.62,0.23,-0.35,0.75,100557.083
2022-04-27 11:44:34.0670,0.82,-0.702,0.204,-1.76,-0.09,0.65,0.23,-0.35,0.75,100557.083
2022-04-27 11:44:34.0760,0.784,-0.712,0.206,-1.48,-0.05,0.65,0.36,-0.43,0.81,100557.083
2022-04-27 11:44:34.0860,0.749,-0.714,0.216,-1.17,-0.02,0.58,0.36,-0.43,0.81,100557.083
2022-04-27 11:44:34.0960,0.714,-0.704,0.228,-0.88,-0.13,0.46,0.41,-0.46,0.81,100557.083
2022-04-27 11:44:34.1060,0.683,-0.693,0.237,-0.6,-0.28,0.35,0.45,-0.48,0.7379792332649231,100557.083
2022-04-27 11:44:34.1160,0.665,-0.687,0.247,-0.4,-0.39,0.27,0.47,-0.48,0.74,100557.083
2022-04-27 11:44:34.1260,0.659,-0.684,0.259,-0.34,-0.45,0.17,0.5,-0.41,0.63,100557.083
2022-04-27 11:44:34.1360,0.662,-0.684,0.262,-0.37,-0.51,0.09,0.5,-0.41,0.63,100557.083
2022-04-27 11:44:34.1460,0.677,-0.696,0.253,-0.51,-0.45,0.17,0.53,-0.34,0.59,100557.083
2022-04-27 11:44:34.1560,0.697,-0.71,0.24,-0.73,-0.33,0.29,0.54,-0.34,0.61,100557.083
2022-04-27 11:44:34.1660,0.704,-0.726,0.231,-0.9,-0.22,0.44,0.54,-0.34,0.61,100557.083
2022-04-27 11:44:34.1760,0.709,-0.756,0.234,-0.96,0.0,0.45,0.53,-0.35,0.64,100557.083
2022-04-27 11:44:34.1860,0.716,-0.782,0.234,-1.08,0.27,0.46,0.53,-0.39,0.68,100557.083
2022-04-27 11:44:34.1960,0.729,-0.802,0.235,-1.2,0.44,0.46,0.54,-0.44,0.76,100557.083
2022-04-27 11:44:34.2060,0.75,-0.825,0.251,-1.43,0.63,0.4,0.53,-0.49,0.82,100557.083
2022-04-27 11:44:34.2160,0.771,-0.841,0.264,-1.71,0.79,0.22,0.53,-0.49,0.82,100557.083
2022-04-27 11:44:34.2260,0.762,-0.849,0.269,-1.84,0.88,0.19,0.49,-0.58,0.95,100557.083
2022-04-27 11:44:34.2360,0.688,-0.834,0.276,-1.38,0.76,0.09,0.48,-0.68,0.93,100557.083
2022-04-27 11:44:34.2460,0.612,-0.821,0.271,-0.62,0.57,0.12,0.48,-0.68,0.93,102248.459
2022-04-27 11:44:34.2560,0.543,-0.807,0.267,0.02,0.41,0.15,0.48,-0.78,0.85,102248.459
2022-04-27 11:44:34.2660,0.504,-0.787,0.268,0.55,0.21,0.18,0.48,-0.87,0.62,102248.459
2022-04-27 11:44:34.2750,0.527,-0.769,0.274,0.51,-0.01,0.07,0.48,-0.87,0.62,102248.459
2022-04-27 11:44:34.2850,0.583,-0.758,0.273,0.03,-0.15,0.11,0.44,-0.83,0.48,102248.459
2022-04-27 11:44:34.2950,0.652,-0.742,0.285,-0.64,-0.31,-0.02,0.44,-0.83,0.48,102248.459
2022-04-27 11:44:34.3050,0.709,-0.749,0.279,-1.3,-0.37,-0.04,0.4,-0.82,0.48,102248.459
2022-04-27 11:44:34.3150,0.717,-0.758,0.275,-1.57,-0.26,0.0,0.33,-0.86,0.49,102248.459
2022-04-27 11:44:34.3250,0.715,-0.775,0.261,-1.54,-0.18,0.06,0.33,-0.86,0.49,102248.459
2022-04-27 11:44:34.3350,0.723,-0.792,0.247,-1.61,0.02,0.2,0.31,-0.88,0.52,102248.459
2022-04-27 11:44:34.3450,0.745,-0.803,0.248,-1.79,0.09,0.22,0.3,-0.9,0.55,102248.459
2022-04-27 11:44:34.3550,0.757,-0.818,0.25,-2.0,0.21,0.15,0.25,-0.86,0.66,102248.459
2022-04-27 11:44:34.3650,0.758,-0.834,0.243,-2.07,0.33,0.17,0.25,-0.86,0.66,102248.459
2022-04-27 11:44:34.3750,0.74,-0.841,0.241,-2.0,0.41,0.18,0.23,-0.85,0.72,102248.459
2022-04-27 11:44:34.3860,0.724,-0.843,0.232,-1.83,0.42,0.2,0.2,-0.88,0.76,102248.459
2022-04-27 11:44:34.3950,0.716,-0.814,0.218,-1.81,0.25,0.31,0.17,-0.94,0.8,102248.459
2022-04-27 11:44:34.4050,0.674,-0.794,0.217,-1.55,-0.15,0.32,0.17,-1.04,0.78,102248.459
2022-04-27 11:44:34.4150,0.625,-0.84,0.221,-1.13,0.08,0.25,0.17,-1.04,0.76,102248.459
2022-04-27 11:44:34.4250,0.574,-0.866,0.227,-0.63,0.45,0.15,0.2,-0.97,0.72,102248.459
2022-04-27 11:44:34.4350,0.565,-0.852,0.221,-0.4,0.41,0.12,0.23,-0.88,0.68,102248.459
2022-04-27 11:44:34.4450,0.582,-0.826,0.214,-0.55,0.09,0.18,0.25,-0.81,0.68,102248.459
2022-04-27 11:44:34.4540,0.588,-0.831,0.213,-0.72,0.03,0.18,0.25,-0.76,0.68,102248.459
2022-04-27 11:44:34.4650,0.575,-0.841,0.21,-0.68,0.07,0.17,0.25,-0.76,0.68,102248.459
2022-04-27 11:44:34.4750,0.584,-0.885,0.198,-0.65,0.27,0.27,0.24,-0.7,0.79,102248.459
2022-04-27 11:44:34.4840,0.632,-0.925,0.196,-1.19,1.0,0.24,0.24,-0.7,0.79,102248.459
2022-04-27 11:44:34.4940,0.58,-0.854,0.151,-1.05,0.27,0.64,0.29,-0.66,0.83,102248.459
2022-04-27 11:44:34.5040,0.567,-0.899,0.212,-0.7,0.39,0.43,0.29,-0.49,0.92,102248.459
2022-04-27 11:44:34.5140,0.577,-0.893,0.25,-0.91,0.54,-0.18,0.29,-0.49,0.92,102248.459
2022-04-27 11:44:34.5240,0.616,-0.989,0.263,-1.08,0.72,-0.29,0.24,-0.42,1.03,102248.459
2022-04-27 11:44:34.5340,0.704,-1.03,0.263,-2.12,2.02,-0.52,0.18,-0.43,1.32,102248.459
2022-04-27 11:44:34.5440,0.601,-0.866,0.128,-1.96,0.54,0.42,0.33,-0.38,1.32,102248.459
2022-04-27 11:44:34.5540,0.541,-0.888,0.114,-0.92,-0.03,1.28,0.34,-0.35,1.38,102248.459
2022-04-27 11:44:34.5650,0.58,-0.907,0.238,-1.29,0.41,0.37,0.34,-0.35,1.38,102248.459
2022-04-27 11:44:34.5740,0.555,-0.876,0.29,-1.46,0.07,-0.62,0.22,-0.34,1.44,102248.459
2022-04-27 11:44:34.5840,0.486,-0.868,0.208,-0.98,-0.11,-0.19,0.17,-0.35,1.47,102248.459
2022-04-27 11:44:34.5940,0.433,-0.867,0.148,-0.48,-0.23,0.66,0.21,-0.36,1.46,102248.459
2022-04-27 11:44:34.6030,0.386,-0.833,0.16,-0.14,-0.41,0.73,0.29,-0.4,1.29,102248.459
2022-04-27 11:44:34.6130,0.369,-0.824,0.173,0.07,-0.77,0.58,0.29,-0.4,1.29,102248.459
2022-04-27 11:44:34.6230,0.37,-0.846,0.189,-0.01,-0.59,0.47,0.28,-0.44,1.1,102248.459
2022-04-27 11:44:34.6340,0.373,-0.84,0.194,-0.11,-0.58,0.34,0.28,-0.44,1.1,102248.459
2022-04-27 11:44:34.6430,0.401,-0.852,0.186,-0.33,-0.66,0.42,0.29,-0.33,0.95,102248.459
2022-04-27 11:44:34.6540,0.438,-0.849,0.185,-0.85,-0.43,0.47,0.32,-0.26,0.89,102248.459
2022-04-27 11:44:34.6630,0.447,-0.833,0.192,-1.05,-0.85,0.46,0.34,-0.17,0.87,102248.459
2022-04-27 11:44:34.6730,0.451,-0.855,0.202,-1.22,-0.59,0.38,0.34,-0.17,0.87,102248.459
2022-04-27 11:44:34.6830,0.431,-0.841,0.19,-1.16,-0.71,0.41,0.31,-0.06,0.79,102248.459
2022-04-27 11:44:34.6930,0.421,-0.871,0.165,-1.04,-0.64,0.66,0.31,-0.06,0.79,102248.459
2022-04-27 11:44:34.7030,0.439,-0.924,0.134,-1.22,-0.15,0.95,0.28,-0.08,0.78,102248.459
2022-04-27 11:44:34.7130,0.453,-0.948,0.112,-1.46,0.26,1.28,0.3,-0.08,0.79,102248.459
2022-04-27 11:44:34.7230,0.465,-0.919,0.143,-1.66,0.04,1.22,0.32,-0.02,0.81,102248.459
2022-04-27 11:44:34.7330,0.464,-0.926,0.193,-1.78,-0.04,0.74,0.31,0.03,0.86,102248.459
2022-04-27 11:44:34.7430,0.445,-0.94,0.222,-1.74,0.07,0.41,0.27,-0.0,0.97,102248.459
2022-04-27 11:44:34.7530,0.415,-0.952,0.218,-1.57,0.19,0.32,0.28,0.02,1.0,102248.459
2022-04-27 11:44:34.7630,0.368,-0.965,0.206,-1.28,0.3,0.52,0.28,0.02,1.0,102248.459
2022-04-27 11:44:34.7730,0.316,-0.959,0.205,-0.83,0.29,0.52,0.29,0.05,1.01,102248.459
2022-04-27 11:44:34.7830,0.277,-0.966,0.206,-0.52,0.26,0.65,0.3,0.07,1.02,102248.459
2022-04-27 11:44:34.7920,0.248,-0.973,0.23,-0.26,0.38,0.4,0.28,0.07,1.0,102248.459
2022-04-27 11:44:34.8020,0.218,-0.937,0.22,-0.12,0.13,0.48,0.29,0.1,0.97,102248.459
2022-04-27 11:44:34.8120,0.176,-0.933,0.242,0.21,-0.09,0.42,0.33,0.18,0.94,102248.459
2022-04-27 11:44:34.8220,0.162,-0.949,0.26,0.38,0.03,0.2,0.32,0.14,0.91,102248.459
2022-04-27 11:44:34.8320,0.172,-0.965,0.248,0.26,0.18,0.23,0.29,0.04,0.88,102248.459
2022-04-27 11:44:34.8420,0.193,-0.97,0.217,0.01,0.29,0.52,0.3,-0.04,0.85,102248.459
2022-04-27 11:44:34.8520,0.219,-0.953,0.214,-0.3,0.21,0.75,0.36,-0.014138455502688885,0.82,102248.459
2022-04-27 11:44:34.8620,0.248,-0.923,0.238,-0.64,-0.09,0.55,0.37,-0.01,0.82,102248.459
2022-04-27 11:44:34.8720,0.291,-0.898,0.244,-1.08,-0.35,0.5,0.34,-0.05,0.83,102248.459
2022-04-27 11:44:34.8830,0.321,-0.89,0.237,-1.54,-0.53,0.53,0.3,-0.09,0.84,102248.459
2022-04-27 11:44:34.8920,0.351,-0.904,0.234,-1.88,-0.44,0.61,0.23,-0.18,0.93,102248.459
2022-04-27 11:44:34.9020,0.344,-0.901,0.229,-2.1,-0.4,0.64,0.23,-0.18,0.93,102248.459
2022-04-27 11:44:34.9120,0.312,-0.896,0.207,-1.89,-0.45,0.83,0.23,-0.27,0.95,102248.459
2022-04-27 11:44:34.9220,0.271,-0.871,0.21,-1.62,-0.63,0.96,0.23,-0.29,0.9,102248.459
2022-04-27 11:44:34.9320,0.227,-0.885,0.237,-1.24,-0.72,0.73,0.22,-0.35,0.86,102248.459
2022-04-27 11:44:34.9420,0.189,-0.917,0.247,-0.93,-0.38,0.6,0.22,-0.35,0.86,102248.459
2022-04-27 11:44:34.9510,0.161,-0.925,0.258,-0.65,-0.23,0.52,0.21,-0.5,0.79,102248.459
2022-04-27 11:44:34.9610,0.145,-0.941,0.268,-0.55,-0.14,0.42,0.21,-0.5,0.79,102248.459
2022-04-27 11:44:34.9720,0.133,-0.957,0.278,-0.45,0.04,0.37,0.21,-0.56,0.77,102248.459
2022-04-27 11:44:34.9810,0.136,-0.963,0.305,-0.48,0.14,0.15,0.18,-0.59,0.76,102248.459
2022-04-27 11:44:34.9910,0.12,-0.985,0.314,-0.5,0.24,-0.01,0.15,-0.59,0.74,102248.459
2022-04-27 11:44:35.0010,0.115,-1.024,0.319,-0.34,0.64,-0.05,0.11,-0.61,0.76,102248.459
2022-04-27 11:44:35.0120,0.152,-1.029,0.317,-0.67,0.8,-0.05,0.11,-0.61,0.76,102248.459
2022-04-27 11:44:35.0210,0.168,-1.033,0.326,-1.02,0.8,-0.07,0.1,-0.58,0.84,102248.459
2022-04-27 11:44:35.0310,0.15,-1.045,0.36,-0.97,0.93,-0.33,0.04,-0.38,0.9,102248.459
2022-04-27 11:44:35.0410,0.163,-1.022,0.369,-1.02,0.84,-0.57,0.04,-0.38,0.9,102248.459
2022-04-27 11:44:35.0510,0.176,-0.999,0.345,-1.32,0.54,-0.39,-0.0,-0.28,0.96,102248.459
2022-04-27 11:44:35.0610,0.145,-1.001,0.337,-1.22,0.49,-0.26,-0.0,-0.28,0.96,102248.459
2022-04-27 11:44:35.0710,0.111,-0.996,0.329,-0.96,0.49,-0.18,-0.02,-0.27,0.96,102248.459
2022-04-27 11:44:35.0810,0.076,-0.983,0.337,-0.7,0.37,-0.21,-0.12,-0.31,0.89,102248.459
2022-04-27 11:44:35.0910,0.054,-0.974,0.341,-0.48,0.26,-0.3,-0.12,-0.31,0.89,102248.459
2022-04-27 11:44:35.1010,0.051,-0.963,0.326,-0.48,0.15,-0.24,-0.19,-0.32,0.85,102248.459
2022-04-27 11:44:35.1110,0.043,-0.95,0.305,-0.47,0.03,-0.05,-0.26,-0.38,0.73,102248.459
2022-04-27 11:44:35.1210,0.043,-0.942,0.294,-0.5,-0.08,0.07,-0.29,-0.39,0.68,102248.459
2022-04-27 11:44:35.1310,0.047,-0.933,0.285,-0.59,-0.18,0.12,-0.29,-0.39,0.68,102248.459
2022-04-27 11:44:35.1400,0.045,-0.939,0.273,-0.63,-0.19,0.21,-0.3,-0.41,0.64,102248.459
2022-04-27 11:44:35.1500,0.054,-0.945,0.271,-0.72,-0.12,0.24,-0.3,-0.41,0.63,102248.459
2022-04-27 11:44:35.1600,0.056,-0.948,0.275,-0.84,-0.1,0.19,-0.3,-0.39,0.63,102248.459
2022-04-27 11:44:35.1700,0.047,-0.954,0.278,-0.83,-0.02,0.13,-0.3,-0.39,0.63,102248.459
2022-04-27 11:44:35.1810,0.04,-0.953,0.275,-0.79,-0.05,0.09,-0.29,-0.35,0.62,102248.459
2022-04-27 11:44:35.1900,0.036,-0.961,0.27,-0.79,0.01,0.13,-0.26,-0.31,0.61,102248.459
2022-04-27 11:44:35.2000,0.032,-0.955,0.255,-0.8,0.0,0.16,-0.23,-0.38,0.58,102248.459
2022-04-27 11:44:35.2100,0.034,-0.946,0.236,-0.84,-0.1,0.49,-0.23,-0.38,0.58,104283.104
2022-04-27 11:44:35.2200,0.026,-0.954,0.267,-0.85,-0.1,0.14,-0.25,-0.42,0.58,104283.104
2022-04-27 11:44:35.2300,0.02,-0.96,0.249,-0.82,0.0,0.19,-0.26,-0.49,0.56,104283.104
2022-04-27 11:44:35.2400,0.011,-0.943,0.236,-0.79,-0.09,0.33,-0.28,-0.53,0.52,104283.104
2022-04-27 11:44:35.2500,-0.011,-0.938,0.243,-0.65,-0.22,0.32,-0.28,-0.53,0.52,104283.104
2022-04-27 11:44:35.2600,-0.019,-0.938,0.244,-0.53,-0.21,0.2,-0.3,-0.55,0.49,104283.104
2022-04-27 11:44:35.2700,-0.03,-0.957,0.275,-0.5,-0.17,0.12,-0.4646792709827423,-0.49,0.38,104283.104
2022-04-27 11:44:35.2800,-0.029,-0.948,0.279,-0.42,-0.01,-0.31,-0.52,-0.51,0.39,104283.104
2022-04-27 11:44:35.2900,-0.009,-0.913,0.226,-0.65,-0.42,0.15,-0.52,-0.51,0.39,104283.104
2022-04-27 11:44:35.3000,-0.026,-0.934,0.228,-0.65,-0.42,0.26,-0.6,-0.58,0.4,104283.104
2022-04-27 11:44:35.3090,-0.05,-0.937,0.213,-0.4,-0.23,0.22,-0.63,-0.62,0.39,104283.104
2022-04-27 11:44:35.3190,-0.048,-0.907,0.194,-0.34,-0.46,0.4,-0.64,-0.66,0.38,104283.104
2022-04-27 11:44:35.3290,-0.043,-0.889,0.199,-0.47,-0.77,0.4,-0.69,-0.71,0.37,104283.104
2022-04-27 11:44:35.3400,-0.051,-0.877,0.212,-0.39,-0.84,0.18,-0.69,-0.71,0.37,104283.104
2022-04-27 11:44:35.3490,-0.034,-0.865,0.18,-0.51,-1.04,0.24,-0.78,-0.66,0.38,104283.104
2022-04-27 11:44:35.3590,-0.037,-0.862,0.172,-0.61,-1.05,0.46,-0.83,-0.61,0.37,104283.104
2022-04-27 11:44:35.3690,-0.053,-0.859,0.168,-0.47,-1.13,0.3,-0.86,-0.57,0.37,104283.104
2022-04-27 11:44:35.3790,-0.06,-0.863,0.135,-0.42,-1.11,0.51,-0.89,-0.54,0.36,104283.104
2022-04-27 11:44:35.3890,-0.08,-0.876,0.127,-0.31,-1.06,0.62,-0.89,-0.54,0.36,104283.104
2022-04-27 11:44:35.3990,-0.1,-0.89,0.122,-0.1,-0.9,0.56,-0.9,-0.49,0.33,104283.104
2022-04-27 11:44:35.4090,-0.11,-0.891,0.109,0.0,-0.86,0.58,-0.9,-0.47,0.33,104283.104
2022-04-27 11:44:35.4190,-0.113,-0.891,0.091,0.03,-0.87,0.67,-0.87,-0.46,0.32,104283.104
2022-04-27 11:44:35.4290,-0.119,-0.88,0.082,0.05,-0.96,0.75,-0.87,-0.42,0.3,104283.104
2022-04-27 11:44:35.4390,-0.133,-0.904,0.077,0.13,-0.9,0.65,-0.87,-0.42,0.3,104283.104
2022-04-27 11:44:35.4490,-0.16,-0.929,0.056,0.3,-0.62,0.78,-0.83,-0.37,0.26,104283.104
2022-04-27 11:44:35.4590,-0.218,-0.958,0.034,0.73,-0.37,0.88,-0.83,-0.37,0.26,104283.104
2022-04-27 11:44:35.4690,-0.296,-0.995,0.01,1.48,-0.06,1.04,-0.67,-0.45,0.05,104283.104
2022-04-27 11:44:35.4790,-0.305,-1.04,-0.009,1.9,0.37,1.22,-0.67,-0.45,0.05,104283.104
2022-04-27 11:44:35.4880,-0.247,-1.075,-0.009,1.52,0.74,1.22,-0.46,-0.56,-0.05,104283.104
2022-04-27 11:44:35.4980,-0.17,-1.093,-0.009,0.82,1.0,1.17,-0.38,-0.53,-0.07,104283.104
2022-04-27 11:44:35.5080,-0.094,-1.087,0.008,0.04,1.0,1.07,-0.34,-0.44,-0.11,104283.104
2022-04-27 11:44:35.5190,-0.093,-0.955,0.034,-0.3,0.39,0.76,-0.3,-0.41,-0.13,104283.104
2022-04-27 11:44:35.5280,-0.014,-1.006,0.01,-0.48,-0.51,0.77,-0.3,-0.41,-0.13,104283.104
2022-04-27 11:44:35.5380,0.092,-1.139,0.023,-1.72,1.3,0.84,-0.32,-0.36,0.14,104283.104
2022-04-27 11:44:35.5480,0.097,-1.041,0.025,-2.1,0.98,0.65,-0.32,-0.33,0.28,104283.104
2022-04-27 11:44:35.5580,0.092,-0.949,0.023,-2.05,-0.1,0.7,-0.32,-0.33,0.28,104283.104
2022-04-27 11:44:35.5680,0.096,-0.904,0.019,-2.04,-0.77,0.66,-0.35,-0.36,0.36,104283.104
2022-04-27 11:44:35.5780,0.104,-0.908,0.024,-2.21,-0.83,0.65,-0.35,-0.36,0.36,104283.104
2022-04-27 11:44:35.5880,0.094,-0.909,0.025,-2.19,-0.77,0.56,-0.37,-0.36,0.43,104283.104
2022-04-27 11:44:35.5980,0.075,-0.902,0.013,-2.09,-0.83,0.61,-0.36,-0.37,0.53,104283.104
2022-04-27 11:44:35.6080,0.043,-0.897,0.003,-1.86,-0.88,0.69,-0.3,-0.31,0.55,104283.104
2022-04-27 11:44:35.6180,-0.002,-0.901,-0.004,-1.52,-0.89,0.75,-0.24,-0.27,0.56,104283.104
2022-04-27 11:44:35.6280,-0.039,-0.912,-0.011,-1.15,-0.76,0.8,-0.2,-0.26,0.55,104283.104
2022-04-27 11:44:35.6380,-0.082,-0.91,0.012,-0.82,-0.74,0.7,-0.2,-0.26,0.55,104283.104
2022-04-27 11:44:35.6480,-0.119,-0.902,0.044,-0.49,-0.78,0.33,-0.22,-0.27,0.52,104283.104
2022-04-27 11:44:35.6570,-0.173,-0.887,0.044,-0.06,-0.91,0.18,-0.26,-0.32,0.46,104283.104
2022-04-27 11:44:35.6670,-0.214,-0.879,0.03,0.37,-1.05,0.29,-0.28,-0.39,0.35,104283.104
2022-04-27 11:44:35.6780,-0.242,-0.898,0.03,0.67,-0.94,0.34,-0.31,-0.52,0.13,104283.104
2022-04-27 11:44:35.6880,-0.257,-0.912,0.023,0.86,-0.74,0.29,-0.31,-0.52,0.13,104283.104
2022-04-27 11:44:35.6970,-0.26,-0.906,0.013,0.92,-0.78,0.41,-0.29,-0.58,0.03,104283.104
2022-04-27 11:44:35.7070,-0.264,-0.918,0.005,0.96,-0.69,0.47,-0.25,-0.73,-0.16,104283.104
2022-04-27 11:44:35.7170,-0.249,-0.913,-0.001,0.94,-0.69,0.51,-0.23,-0.84,-0.23,104283.104
2022-04-27 11:44:35.7270,-0.219,-0.922,-0.017,0.69,-0.68,0.64,-0.23,-0.88,-0.26,104283.104
2022-04-27 11:44:35.7370,-0.185,-0.939,-0.002,0.4,-0.52,0.63,-0.24,-0.85,-0.29,104283.104
2022-04-27 11:44:35.7470,-0.159,-0.944,0.016,0.14,-0.44,0.36,-0.23,-0.84,-0.3,104283.104
2022-04-27 11:44:35.7580,-0.13,-0.954,-0.02,-0.1,-0.36,0.52,-0.23,-0.84,-0.3,104283.104
2022-04-27 11:44:35.7670,-0.113,-0.962,-0.036,-0.26,-0.29,0.82,-0.2,-0.86,-0.3,104283.104
2022-04-27 11:44:35.7770,-0.081,-0.962,-0.039,-0.48,-0.28,0.84,-0.16,-0.92,-0.34,104283.104
2022-04-27 11:44:35.7870,-0.071,-0.967,-0.036,-0.66,-0.18,0.87,-0.16,-0.92,-0.34,104283.104
2022-04-27 11:44:35.7970,-0.055,-0.969,-0.028,-0.71,-0.29,0.73,-0.08,-0.88,-0.35,104283.104
2022-04-27 11:44:35.8070,-0.04,-0.967,-0.035,-0.84,-0.16,0.79,-0.03,-0.89,-0.36,104283.104
2022-04-27 11:44:35.8170,-0.016,-0.96,-0.045,-1.0,-0.32,0.9,-0.03,-0.89,-0.36,104283.104
2022-04-27 11:44:35.8270,0.001,-0.978,-0.034,-1.19,-0.2,0.88,-0.0,-0.89,-0.3,104283.104
2022-04-27 11:44:35.8370,0.004,-0.986,-0.023,-1.23,-0.07,0.75,-0.04,-0.93,-0.14,104283.104
2022-04-27 11:44:35.8470,-0.005,-0.986,-0.017,-1.18,-0.06,0.69,-0.07,-0.95,-0.08,104283.104
2022-04-27 11:44:35.8570,-0.034,-0.989,-0.019,-0.94,-0.06,0.66,-0.08,-0.97,-0.04,104283.104
2022-04-27 11:44:35.8670,-0.058,-0.998,-0.034,-0.66,0.04,0.77,-0.08,-0.97,-0.04,104283.104
2022-04-27 11:44:35.8760,-0.075,-1.002,-0.053,-0.46,0.07,0.98,-0.05,-0.98,-0.01,104283.104
2022-04-27 11:44:35.8870,-0.086,-1.002,-0.054,-0.34,0.12,1.06,0.07,-0.97,-0.0,104283.104
2022-04-27 11:44:35.8960,-0.097,-0.99,-0.051,-0.22,0.04,1.04,0.07,-0.97,-0.0,104283.104
2022-04-27 11:44:35.9060,-0.107,-0.977,-0.045,-0.09,-0.16,1.02,0.14,-0.95,-0.03,104283.104
2022-04-27 11:44:35.9160,-0.099,-1.0,-0.029,-0.1,0.01,0.93,0.15,-0.93,-0.04,104283.104
2022-04-27 11:44:35.9260,-0.1,-0.986,-0.02,-0.15,0.01,0.81,0.15,-0.93,-0.04,104283.104
2022-04-27 11:44:35.9370,-0.099,-0.977,-0.024,-0.11,-0.13,0.84,0.18,-0.88,-0.08,104283.104
2022-04-27 11:44:35.9460,-0.103,-0.968,-0.027,-0.11,-0.21,0.91,0.18,-0.88,-0.08,104283.104
2022-04-27 11:44:35.9560,-0.107,-0.964,-0.029,-0.02,-0.26,0.96,0.21,-0.85,-0.1,104283.104
2022-04-27 11:44:35.9660,-0.096,-0.946,-0.022,-0.04,-0.36,0.95,0.22,-0.86,-0.14,104283.104
2022-04-27 11:44:35.9760,-0.056,-0.948,-0.011,-0.29,-0.49,0.9,0.25,-0.83,-0.22,104283.104
2022-04-27 11:44:35.9860,-0.007,-0.928,0.008,-0.75,-0.47,0.75,0.25,-0.83,-0.22,104283.104
2022-04-27 11:44:35.9960,0.032,-0.877,0.027,-1.17,-0.99,0.61,0.25,-0.8,-0.18,104283.104
2022-04-27 11:44:36.0050,0.056,-0.896,0.048,-1.43,-1.1,0.41,0.23,-0.73,-0.07,104283.104
2022-04-27 11:44:36.0160,0.064,-0.915,0.048,-1.57,-0.73,0.36,0.23,-0.73,-0.07,104283.104
2022-04-27 11:44:36.0250,0.033,-0.883,0.048,-1.41,-0.96,0.41,0.25,-0.78,0.01,104283.104
2022-04-27 11:44:36.0350,-0.016,-0.876,0.042,-0.94,-1.13,0.46,0.25,-0.92,0.01,104283.104
2022-04-27 11:44:36.0460,-0.055,-0.874,0.027,-0.52,-1.13,0.63,0.23,-1.11,0.0,104283.104
2022-04-27 11:44:36.0560,-0.081,-0.876,0.025,-0.18,-1.16,0.74,0.23,-1.11,0.0,104283.104
2022-04-27 11:44:36.0650,-0.09,-0.883,0.026,-0.04,-1.07,0.73,0.12,-1.44,0.07,104283.104
2022-04-27 11:44:36.0750,-0.102,-0.866,0.014,0.06,-1.15,0.84,0.1,-1.51,0.12,104283.104
2022-04-27 11:44:36.0850,-0.12,-0.857,0.013,0.23,-1.32,0.91,0.07,-1.49,0.15,104283.104
2022-04-27 11:44:36.0960,-0.136,-0.867,0.014,0.4,-1.26,0.92,0.07,-1.49,0.15,104283.104
2022-04-27 11:44:36.1050,-0.136,-0.857,-0.008,0.48,-1.19,1.07,0.13,-1.42,0.16,104283.104
2022-04-27 11:44:36.1150,-0.139,-0.815,-0.003,0.46,-1.61,1.2,0.24,-1.27,0.15,104283.104
2022-04-27 11:44:36.1250,-0.142,-0.842,0.056,0.49,-1.65,0.89,0.33,-1.07,0.14,104283.104
2022-04-27 11:44:36.1350,-0.145,-0.931,0.127,0.61,-0.85,-0.15,0.19,-0.85,0.1,104283.104
2022-04-27 11:44:36.1450,-0.091,-0.884,0.016,0.16,-0.64,0.83,0.28,-0.91,0.09,104283.104
2022-04-27 11:44:36.1550,-0.074,-0.843,0.01,-0.1,-1.48,1.1,0.59,-0.76,0.11,104283.104
2022-04-27 11:44:36.1650,-0.072,-0.89,0.006,-0.24,-1.11,1.35,0.58,-0.79,0.14,104283.104
2022-04-27 11:44:36.1750,-0.163,-0.882,0.082,0.33,-0.93,0.84,0.58,-0.79,0.14,105784.76
2022-04-27 11:44:36.1800,-0.223,-0.881,0.099,1.14,-1.05,0.43,0.49,-0.82,0.08,105784.76
2022-04-27 11:44:36.1920,-0.256,-0.877,0.062,1.54,-1.03,0.69,0.42,-0.91,-0.0,105784.76
2022-04-27 11:44:36.2020,-0.274,-0.856,0.012,1.8,-1.19,1.25,0.38,-1.07,-0.09,105784.76
2022-04-27 11:44:36.2120,-0.268,-0.873,0.013,1.87,-1.25,1.52,0.35,-1.22,-0.2,105784.76
2022-04-27 11:44:36.2220,-0.236,-0.89,0.018,1.69,-0.88,1.37,0.34,-1.28,-0.29,105784.76
2022-04-27 11:44:36.2320,-0.195,-0.847,0.022,1.36,-1.19,1.55,0.37,-1.35,-0.4,105784.76
2022-04-27 11:44:36.2410,-0.157,-0.834,0.093,1.04,-1.47,1.05,0.32,-1.4,-0.51,105784.76
2022-04-27 11:44:36.2520,-0.108,-0.856,0.129,0.72,-1.37,0.51,0.24,-1.42,-0.59,105784.76
2022-04-27 11:44:36.2610,-0.053,-0.895,0.112,0.22,-1.0,0.53,0.18,-1.43,-0.64,105784.76
2022-04-27 11:44:36.2710,-0.008,-0.906,0.08,-0.12,-0.77,0.87,0.18,-1.4,-0.67,105784.76
2022-04-27 11:44:36.2810,0.025,-0.898,0.079,-0.48,-0.81,1.05,0.17,-1.41,-0.64,105784.76
2022-04-27 11:44:36.2910,0.019,-0.909,0.1,-0.44,-0.78,0.86,0.1,-1.48,-0.6,105784.76
2022-04-27 11:44:36.3010,0.001,-0.927,0.086,-0.2,-0.65,0.88,0.02,-1.64,-0.59,105784.76
2022-04-27 11:44:36.3110,-0.022,-0.959,0.068,0.11,-0.34,1.06,-0.07,-1.81,-0.57,105784.76
2022-04-27 11:44:36.3210,-0.032,-0.956,0.057,0.32,-0.22,1.21,-0.13,-1.95,-0.54,105784.76
2022-04-27 11:44:36.3310,0.004,-0.937,0.072,0.39,-0.4,1.09,-0.22,-2.04,-0.51,105784.76
2022-04-27 11:44:36.3410,0.064,-0.949,0.017,-0.39,-0.44,1.28,-0.27,-2.26,-0.49,105784.76
2022-04-27 11:44:36.3510,0.059,-0.983,-0.09,-0.12,-0.2,1.96,-0.21,-2.3,-0.5,105784.76
2022-04-27 11:44:36.3610,0.117,-1.048,-0.273,-0.77,0.36,4.16,0.1,-2.38,-0.45,105784.76
2022-04-27 11:44:36.3710,0.118,-0.951,-0.201,-0.35,0.44,3.86,0.32,-2.45,-0.56,105784.76
2022-04-27 11:44:36.3810,0.208,-1.005,-0.031,-1.58,-0.76,2.95,0.38,-2.38,-0.55,105784.76
2022-04-27 11:44:36.3910,0.058,-1.19,0.105,-0.29,1.86,0.9,0.3,-2.37,-0.47,105784.76
2022-04-27 11:44:36.4010,-0.042,-1.175,0.129,0.71,2.02,0.47,0.19,-2.25,-0.4,105784.76
2022-04-27 11:44:36.4110,0.031,-1.019,0.101,0.83,0.83,0.6,0.01,-2.15,-0.32,105784.76
2022-04-27 11:44:36.4200,-0.385,-1.466,-0.257,2.94,2.77,2.64,0.25,-2.55,-0.88,105784.76
2022-04-27 11:44:36.4310,-0.284,-1.363,-0.155,4.71,4.94,4.37,0.51,-2.73,-1.32,105784.76
2022-04-27 11:44:36.4410,-0.129,-1.153,-0.01,3.03,2.25,2.0,0.64,-2.58,-1.41,105784.76
2022-04-27 11:44:36.4500,-0.016,-1.037,0.008,1.97,1.05,1.97,0.69,-2.6,-1.41,105784.76
2022-04-27 11:44:36.4600,0.126,-0.952,0.196,0.99,0.12,0.63,0.61,-2.47,-1.34,105784.76
2022-04-27 11:44:36.4700,0.217,-0.916,0.243,-0.13,-0.44,-0.61,0.45,-2.35,-1.28,105784.76
2022-04-27 11:44:36.4800,0.301,-0.935,0.195,-0.65,-0.38,-0.3,0.36,-2.15,-1.21,105784.76
2022-04-27 11:44:36.4900,0.376,-0.988,0.121,-1.4,0.07,0.36,0.4,-1.93,-1.14,105784.76
2022-04-27 11:44:36.5000,0.393,-1.031,0.091,-1.63,0.59,0.89,0.48,-1.82,-1.13,105784.76
2022-04-27 11:44:36.5100,0.391,-1.062,0.103,-1.48,0.98,0.88,0.55,-1.76,-1.1,105784.76
2022-04-27 11:44:36.5200,0.389,-1.071,0.131,-1.33,1.17,0.66,0.59,-1.73,-1.03,105784.76
2022-04-27 11:44:36.5300,0.41,-1.07,0.161,-1.32,1.24,0.38,0.56,-1.78,-0.9,105784.76
2022-04-27 11:44:36.5400,0.414,-1.049,0.181,-1.42,1.12,0.09,0.47,-1.92,-0.69,105784.76
2022-04-27 11:44:36.5500,0.352,-0.992,0.082,-0.88,0.8,0.51,0.39,-2.19,-0.48,105784.76
2022-04-27 11:44:36.5590,0.418,-0.974,0.084,-0.84,0.24,1.12,0.29,-2.54,-0.25,105784.76
2022-04-27 11:44:36.5700,0.494,-1.01,0.116,-1.76,0.6,0.63,0.16,-2.89,0.02,105784.76
2022-04-27 11:44:36.5800,0.472,-0.992,0.123,-1.86,0.66,0.42,0.03,-3.23,0.23,105784.76
2022-04-27 11:44:36.5900,0.414,-0.939,0.121,-1.32,0.14,0.29,-0.11,-3.54,0.39,105784.76
2022-04-27 11:44:36.5990,0.338,-0.928,0.127,-0.65,-0.14,0.14,-0.28,-3.82,0.52,105784.76
2022-04-27 11:44:36.6100,0.261,-0.926,0.122,0.13,-0.2,-0.02,-0.44,-4.02,0.61,105784.76
2022-04-27 11:44:36.6190,0.212,-0.932,0.113,0.77,-0.2,-0.11,-0.59,-4.17,0.66,105784.76
2022-04-27 11:44:36.6300,0.264,-0.966,0.121,0.65,0.01,-0.32,-0.76,-4.27,0.72,105784.76
2022-04-27 11:44:36.6390,0.341,-0.994,0.109,-0.26,0.31,-0.52,-0.9,-4.27,0.85,105784.76
2022-04-27 11:44:36.6490,0.369,-1.003,0.082,-0.73,0.43,-0.48,-1.02,-4.18,0.98,105784.76
2022-04-27 11:44:36.6590,0.367,-1.012,0.072,-0.94,0.45,-0.54,-1.14,-4.05,1.11,105784.76
2022-04-27 11:44:36.6690,0.32,-1.007,0.063,-0.78,0.5,-0.7,-1.28,-3.93,1.26,105784.76
2022-04-27 11:44:36.6790,0.224,-0.976,0.023,-0.1,0.18,-0.68,-1.4,-3.86,1.32,105784.76
2022-04-27 11:44:36.6890,0.126,-0.984,-0.019,0.76,0.06,-0.41,-1.48,-3.83,1.31,105784.76
2022-04-27 11:44:36.6990,0.054,-1.003,-0.039,1.42,0.24,-0.43,-1.55,-3.8,1.27,105784.76
2022-04-27 11:44:36.7090,0.003,-0.998,-0.077,1.86,0.31,-0.36,-1.63,-3.83,1.17,105784.76
2022-04-27 11:44:36.7190,-0.029,-0.971,-0.107,2.08,0.06,-0.25,-1.74,-3.95,1.03,105784.76
2022-04-27 11:44:36.7290,-0.045,-0.966,-0.126,2.18,-0.09,-0.29,-1.87,-4.09,0.87,105784.76
2022-04-27 11:44:36.7390,-0.022,-0.998,-0.153,1.97,0.11,-0.31,-1.99,-4.16,0.76,105784.76
2022-04-27 11:44:36.7490,0.038,-1.045,-0.182,1.37,0.59,-0.32,-2.08,-4.13,0.73,105784.76
2022-04-27 11:44:36.7540,0.114,-1.079,-0.236,1.37,0.59,-0.32,-2.14,-4.02,0.78,105784.76
2022-04-27 11:44:36.7670,0.14,-1.074,-0.273,-0.2,1.18,0.1,-2.18,-3.91,0.85,105784.76
2022-04-27 11:44:36.7770,0.137,-1.06,-0.282,-0.38,1.05,0.01,-2.22,-3.83,0.92,105784.76
2022-04-27 11:44:36.7870,0.135,-1.058,-0.286,-0.57,1.08,-0.2,-2.27,-3.76,1.02,105784.76
2022-04-27 11:44:36.7970,0.107,-1.024,-0.299,-0.57,1.08,-0.2,-2.33,-3.68,1.12,105784.76
2022-04-27 11:44:36.8070,0.067,-0.96,-0.316,-0.64,0.97,-0.36,-2.38,-3.69,1.19,105784.76
2022-04-27 11:44:36.8170,0.033,-0.876,-0.294,-0.48,0.49,-0.39,-2.46,-3.72,1.25,105784.76
2022-04-27 11:44:36.8270,-0.002,-0.816,-0.271,-0.38,-0.19,-0.68,-2.58,-3.7,1.3,105784.76
2022-04-27 11:44:36.8370,-0.043,-0.807,-0.284,-0.3,-0.82,-1.22,-2.69,-3.67,1.32,105784.76
2022-04-27 11:44:36.8470,-0.096,-0.821,-0.32,-0.21,-1.0,-1.44,-2.76,-3.57,1.29,105784.76
2022-04-27 11:44:36.8570,-0.145,-0.782,-0.362,0.04,-0.73,-1.37,-2.78,-3.39,1.21,105784.76
2022-04-27 11:44:36.8670,-0.183,-0.722,-0.413,0.48,-1.21,-0.92,-2.75,-3.13,1.08,105784.76
2022-04-27 11:44:36.8770,-0.188,-0.685,-0.445,0.48,-1.21,-0.92,-2.7,-2.85,0.9,105784.76
2022-04-27 11:44:36.8860,-0.183,-0.671,-0.455,0.15,-1.59,-0.7,-2.63,-2.51,0.72,105784.76
2022-04-27 11:44:36.8960,-0.294,-0.681,-0.463,0.15,-1.59,-0.7,-2.57,-2.22,0.47,105784.76
2022-04-27 11:44:36.9060,-0.595,-0.77,-0.473,0.49,-1.47,-0.82,-2.51,-2.06,0.0,105784.76
2022-04-27 11:44:36.9160,-0.771,-0.852,-0.478,2.69,-0.78,-0.87,-2.46,-1.95,-0.62,105784.76
2022-04-27 11:44:36.9260,-0.568,-0.826,-0.516,5.41,0.38,-0.99,-2.39,-1.85,-1.05,105784.76
2022-04-27 11:44:36.9360,-0.35,-0.721,-0.516,2.05,-0.05,-0.8,-2.42,-1.92,-1.26,105784.76
2022-04-27 11:44:36.9460,-0.251,-0.639,-0.487,2.05,-0.05,-0.8,-2.5,-2.0,-1.3,105784.76
2022-04-27 11:44:36.9560,-0.186,-0.586,-0.526,0.72,-0.94,-1.24,-2.57,-2.08,-1.28,105784.76
2022-04-27 11:44:36.9660,-0.118,-0.549,-0.57,0.01,-1.36,-1.27,-2.57,-2.08,-1.19,105784.76
2022-04-27 11:44:36.9760,-0.095,-0.538,-0.648,-0.73,-1.69,-0.92,-2.5,-2.03,-1.06,105784.76
2022-04-27 11:44:36.9860,-0.132,-0.526,-0.74,-1.22,-1.71,-0.49,-2.36,-1.97,-0.97,105784.76
2022-04-27 11:44:36.9960,-0.191,-0.521,-0.835,-1.1,-1.72,0.3,-2.1,-1.88,-0.96,105784.76
2022-04-27 11:44:37.0060,-0.251,-0.532,-0.901,-0.66,-1.63,1.16,-1.78,-1.74,-1.06,105784.76
2022-04-27 11:44:37.0160,-0.279,-0.557,-0.974,-0.06,-1.54,1.76,-1.41,-1.65,-1.23,105784.76
2022-04-27 11:44:37.0260,-0.244,-0.611,-0.97,0.34,-1.28,2.48,-0.98,-1.54,-1.4,105784.76
2022-04-27 11:44:37.0360,-0.175,-0.657,-0.935,-0.4,-0.29,2.43,-0.59,-1.44,-1.56,105784.76
2022-04-27 11:44:37.0460,-0.138,-0.681,-0.863,-0.94,0.04,1.83,-0.26,-1.28,-1.66,105784.76
2022-04-27 11:44:37.0550,-0.142,-0.692,-0.792,-0.94,0.04,1.83,-0.03,-1.14,-1.68,105784.76
2022-04-27 11:44:37.0650,-0.184,-0.655,-0.748,-0.65,-0.06,0.55,0.05,-1.08,-1.74,105784.76
2022-04-27 11:44:37.0750,-0.203,-0.63,-0.777,-0.28,-0.47,0.66,0.07,-1.19,-1.84,105784.76
2022-04-27 11:44:37.0850,-0.206,-0.627,-0.81,-0.21,-0.59,1.05,0.14,-1.33,-1.89,105784.76
2022-04-27 11:44:37.0950,-0.218,-0.621,-0.837,-0.21,-0.59,1.05,0.28,-1.44,-1.86,105784.76
2022-04-27 11:44:37.1050,-0.232,-0.642,-0.864,0.04,-0.68,1.73,0.46,-1.67,-1.8,105784.76
2022-04-27 11:44:37.1150,-0.284,-0.635,-0.861,0.38,-0.65,1.9,0.6,-1.98,-1.81,105784.76
2022-04-27 11:44:37.1250,-0.319,-0.64,-0.831,0.38,-0.65,1.9,0.72,-2.34,-1.87,105784.76
2022-04-27 11:44:37.1350,-0.31,-0.656,-0.808,0.89,-0.72,1.63,0.8,-2.71,-1.92,105784.76
2022-04-27 11:44:37.1450,-0.282,-0.646,-0.782,0.89,-0.72,1.63,0.9,-2.94,-1.97,106289.352
2022-04-27 11:44:37.1550,-0.271,-0.639,-0.756,0.61,-0.84,1.52,1.03,-2.97,-2.04,106289.352
2022-04-27 11:44:37.1650,-0.275,-0.649,-0.735,0.36,-1.05,1.41,1.19,-2.85,-2.14,106289.352
2022-04-27 11:44:37.1750,-0.29,-0.659,-0.734,0.38,-1.13,1.3,1.31,-2.77,-2.25,106289.352
2022-04-27 11:44:37.1850,-0.302,-0.739,-0.673,0.41,-1.17,1.43,1.36,-2.61,-2.23,106289.352
2022-04-27 11:44:37.1950,-0.338,-1.029,-0.377,0.69,-0.95,1.36,1.13,-1.94,-1.35,106289.352
2022-04-27 11:44:37.2060,-0.5,-1.126,-0.263,2.14,3.41,-3.15,0.87,-0.89,-0.58,106289.352
2022-04-27 11:44:37.2150,-0.309,-0.842,-0.615,1.88,1.57,-0.62,0.7,-0.61,-0.57,106289.352
2022-04-27 11:44:37.2240,-0.076,-0.623,-0.712,1.88,1.57,-0.62,0.61,-0.71,-0.62,106289.352
2022-04-27 11:44:37.2350,-0.098,-0.611,-0.697,-0.98,-1.33,1.73,0.53,-1.11,-0.69,106289.352
2022-04-27 11:44:37.2440,-0.203,-0.672,-0.709,-1.6,-2.12,1.61,0.49,-1.55,-0.8,106289.352
2022-04-27 11:44:37.2540,-0.268,-0.728,-0.661,-0.66,-1.69,1.82,0.49,-1.79,-0.78,106289.352
2022-04-27 11:44:37.2640,-0.342,-0.765,-0.588,0.09,-1.17,1.68,0.52,-1.74,-0.72,106289.352
2022-04-27 11:44:37.2740,-0.371,-0.748,-0.565,0.74,-0.69,1.03,0.54,-1.57,-0.74,106289.352
2022-04-27 11:44:37.2840,-0.354,-0.72,-0.585,1.26,-0.77,0.66,0.56,-1.43,-0.83,106289.352
2022-04-27 11:44:37.2940,-0.345,-0.696,-0.593,1.16,-1.02,0.84,0.61,-1.36,-0.98,106289.352
2022-04-27 11:44:37.3040,-0.307,-0.715,-0.603,1.07,-1.4,1.07,0.7,-1.3,-1.1,106289.352
2022-04-27 11:44:37.3140,-0.262,-0.766,-0.612,0.87,-1.43,1.22,0.82,-1.27,-1.14,106289.352
2022-04-27 11:44:37.3240,-0.241,-0.818,-0.616,0.42,-1.09,1.42,0.96,-1.27,-1.12,106289.352
2022-04-27 11:44:37.3340,-0.218,-0.859,-0.586,0.18,-0.61,1.6,1.09,-1.34,-1.07,106289.352
2022-04-27 11:44:37.3440,-0.18,-0.885,-0.5,0.02,-0.23,1.59,1.18,-1.41,-0.98,106289.352
2022-04-27 11:44:37.3540,-0.165,-0.883,-0.411,-0.28,-0.01,1.07,1.24,-1.33,-0.87,106289.352
2022-04-27 11:44:37.3640,-0.216,-0.824,-0.325,-0.3,-0.39,-0.39,1.26,-1.07,-0.83,106289.352
2022-04-27 11:44:37.3740,-0.301,-0.787,-0.233,-0.3,-0.39,-0.39,1.26,-0.59,-0.88,106289.352
2022-04-27 11:44:37.3840,-0.304,-0.821,-0.246,0.6,-1.05,-1.29,1.28,-0.11,-0.96,106289.352
2022-04-27 11:44:37.3940,-0.28,-0.845,-0.299,1.04,-0.96,-1.42,1.34,0.25,-1.0,106289.352
2022-04-27 11:44:37.4040,-0.268,-0.86,-0.352,0.9,-0.71,-0.87,1.42,0.44,-0.99,106289.352
2022-04-27 11:44:37.4130,-0.255,-0.863,-0.385,0.85,-0.62,-0.18,1.52,0.5,-0.98,106289.352
2022-04-27 11:44:37.4230,-0.24,-0.855,-0.402,0.85,-0.6,0.32,1.6,0.44,-0.98,106289.352
2022-04-27 11:44:37.4330,-0.224,-0.849,-0.387,0.77,-0.87,0.84,1.63,0.29,-0.98,106289.352
2022-04-27 11:44:37.4440,-0.173,-0.865,-0.327,0.77,-0.87,0.84,1.61,0.13,-0.96,106289.352
2022-04-27 11:44:37.4530,-0.13,-0.9,-0.271,0.5,-0.86,0.54,1.55,0.03,-0.9,106289.352
2022-04-27 11:44:37.4630,-0.097,-0.958,-0.223,0.05,-0.64,0.06,1.53,0.08,-0.82,106289.352
2022-04-27 11:44:37.4730,-0.038,-0.996,-0.176,-0.16,-0.18,-0.27,1.58,0.28,-0.71,106289.352
2022-04-27 11:44:37.4830,0.046,-1.043,-0.113,-0.55,0.22,-0.59,1.71,0.61,-0.59,106289.352
2022-04-27 11:44:37.4930,0.103,-1.094,-0.041,-1.25,0.58,-0.97,1.84,0.98,-0.42,106289.352
2022-04-27 11:44:37.5030,0.063,-1.069,-0.066,-1.93,1.05,-1.59,1.82,1.08,-0.24,106289.352
2022-04-27 11:44:37.5130,-0.051,-0.968,-0.132,-1.89,1.15,-1.57,1.62,0.85,-0.17,106289.352
2022-04-27 11:44:37.5230,-0.141,-0.881,-0.161,-0.9,0.3,-0.81,1.3,0.45,-0.19,106289.352
2022-04-27 11:44:37.5330,-0.193,-0.83,-0.147,0.81,-1.33,-0.13,1.0,0.08,-0.27,106289.352
2022-04-27 11:44:37.5430,-0.229,-0.812,-0.12,0.81,-1.33,-0.13,0.83,-0.13,-0.39,106289.352
2022-04-27 11:44:37.5530,-0.228,-0.817,-0.113,1.26,-1.67,-0.3,0.77,-0.23,-0.5,106289.352
2022-04-27 11:44:37.5630,-0.195,-0.823,-0.128,1.46,-1.65,-0.4,0.81,-0.27,-0.58,106289.352
2022-04-27 11:44:37.5730,-0.156,-0.851,-0.143,1.27,-1.66,-0.24,0.91,-0.3,-0.63,106289.352
2022-04-27 11:44:37.5830,-0.112,-0.885,-0.143,0.95,-1.47,0.04,1.03,-0.31,-0.63,106289.352
2022-04-27 11:44:37.5920,-0.072,-0.921,-0.138,0.6,-1.16,0.18,1.15,-0.3,-0.6,106289.352
2022-04-27 11:44:37.6020,-0.044,-0.952,-0.125,0.21,-0.82,0.25,1.22,-0.38,-0.55,106289.352
2022-04-27 11:44:37.6120,-0.029,-0.97,-0.084,-0.05,-0.52,0.29,1.22,-0.53,-0.47,106289.352
2022-04-27 11:44:37.6220,-0.039,-0.948,0.006,-0.17,-0.38,-0.52,1.18,-0.59,-0.41,106289.352
2022-04-27 11:44:37.6320,-0.078,-0.924,0.051,-0.17,-0.38,-0.52,1.07,-0.64,-0.4,106289.352
2022-04-27 11:44:37.6420,-0.075,-0.908,0.098,0.16,-0.64,-1.01,0.95,-0.63,-0.38,106289.352
2022-04-27 11:44:37.6520,-0.114,-0.895,0.127,0.33,-0.81,-1.36,0.82,-0.54,-0.38,106289.352
2022-04-27 11:44:37.6630,-0.145,-0.894,0.119,0.54,-0.99,-1.64,0.73,-0.4,-0.4,106289.352
2022-04-27 11:44:37.6720,-0.13,-0.902,0.082,1.06,-1.01,-1.32,0.71,-0.29,-0.42,106289.352
2022-04-27 11:44:37.6820,-0.095,-0.93,0.062,0.78,-0.78,-0.82,0.71,-0.26,-0.41,106289.352
2022-04-27 11:44:37.6920,-0.075,-0.96,0.074,0.78,-0.78,-0.82,0.75,-0.14,-0.4,106289.352
2022-04-27 11:44:37.7020,-0.056,-0.998,0.056,0.56,-0.51,-0.95,0.77,-0.06,-0.35,106289.352
2022-04-27 11:44:37.7120,-0.043,-1.03,0.065,0.42,-0.17,-0.72,0.7,-0.02,-0.26,106289.352
2022-04-27 11:44:37.7220,-0.036,-1.044,0.064,0.28,0.18,-0.63,0.56,-0.04,-0.17,106289.352
2022-04-27 11:44:37.7320,-0.035,-1.036,0.04,0.2,0.39,-0.44,0.39,-0.14,-0.07,106289.352
2022-04-27 11:44:37.7420,-0.032,-1.031,0.032,0.2,0.39,-0.44,0.22,-0.25,-0.01,106289.352
2022-04-27 11:44:37.7520,-0.032,-1.029,0.036,0.18,0.31,-0.26,0.09,-0.35,0.02,106289.352
2022-04-27 11:44:37.7610,-0.034,-1.031,0.046,0.17,0.29,-0.26,-0.0,-0.41,0.03,106289.352
2022-04-27 11:44:37.7720,-0.042,-1.03,0.052,0.16,0.28,-0.35,-0.04,-0.44,0.04,106289.352
2022-04-27 11:44:37.7810,-0.065,-1.018,0.055,0.22,0.31,-0.42,-0.06,-0.46,0.03,106289.352
2022-04-27 11:44:37.7910,-0.085,-1.003,0.059,0.37,0.23,-0.49,-0.12,-0.51,0.01,106289.352
2022-04-27 11:44:37.8010,-0.088,-0.996,0.079,0.63,0.08,-0.5,-0.21,-0.55,-0.04,106289.352
2022-04-27 11:44:37.8120,-0.081,-0.998,0.074,0.71,-0.04,-0.67,-0.27,-0.56,-0.06,106289.352
2022-04-27 11:44:37.8210,-0.096,-0.999,0.049,0.67,-0.05,-0.79,-0.31,-0.59,-0.09,106289.352
2022-04-27 11:44:37.8310,-0.103,-0.992,0.02,0.73,0.0,-0.6,-0.33,-0.64,-0.12,106289.352
2022-04-27 11:44:37.8410,-0.1,-0.996,-0.003,0.88,-0.06,-0.36,-0.33,-0.7,-0.14,106289.352
2022-04-27 11:44:37.8510,-0.089,-1.01,-0.035,0.89,-0.07,-0.15,-0.31,-0.78,-0.15,106289.352
2022-04-27 11:44:37.8610,-0.076,-1.028,-0.07,0.82,0.04,0.1,-0.26,-0.87,-0.12,106289.352
2022-04-27 11:44:37.8710,-0.076,-1.047,-0.097,0.68,0.2,0.41,-0.18,-0.96,-0.11,106289.352
2022-04-27 11:44:37.8810,-0.031,-1.051,-0.105,0.73,0.38,0.71,-0.08,-1.0,-0.06,106289.352
2022-04-27 11:44:37.8910,-0.022,-1.047,-0.085,0.36,0.51,0.86,0.01,-1.02,-0.01,106289.352
2022-04-27 11:44:37.9010,-0.02,-1.043,-0.061,0.15,0.46,0.74,0.08,-1.04,0.03,106289.352
2022-04-27 11:44:37.9110,-0.019,-1.038,-0.031,0.12,0.44,0.53,0.11,-1.06,0.07,106289.352
2022-04-27 11:44:37.9210,-0.026,-1.039,0.004,0.09,0.38,0.26,0.12,-1.05,0.09,106289.352
2022-04-27 11:44:37.9300,-0.026,-1.037,0.034,0.13,0.38,-0.06,0.11,-1.02,0.11,106289.352
2022-04-27 11:44:37.9400,-0.019,-1.035,0.047,0.17,0.37,-0.37,0.08,-0.98,0.12,106289.352
2022-04-27 11:44:37.9500,-0.016,-1.036,0.05,0.09,0.35,-0.56,0.05,-0.97,0.12,106289.352
2022-04-27 11:44:37.9600,-0.023,-1.04,0.047,0.03,0.34,-0.61,0.03,-0.94,0.13,106289.352
2022-04-27 11:44:37.9700,-0.032,-1.04,0.033,0.04,0.37,-0.61,0.01,-0.89,0.13,106289.352
2022-04-27 11:44:37.9800,-0.032,-1.03,0.019,0.12,0.41,-0.51,0.01,-0.85,0.13,106289.352
2022-04-27 11:44:37.9900,-0.033,-1.025,0.006,0.15,0.33,-0.35,0.02,-0.8,0.12,106289.352
2022-04-27 11:44:38.0000,-0.035,-1.018,-0.001,0.15,0.2,-0.12,0.05,-0.76,0.12,106289.352
2022-04-27 11:44:38.0100,-0.026,-1.012,-0.004,0.15,0.2,-0.12,0.08,-0.71,0.12,106289.352
2022-04-27 11:44:38.0200,-0.022,-1.004,-0.007,0.08,0.13,-0.08,0.13,-0.66,0.13,106289.352
2022-04-27 11:44:38.0300,-0.022,-0.998,-0.016,0.0,0.07,-0.04,0.18,-0.59,0.13,106289.352
2022-04-27 11:44:38.0400,-0.026,-0.993,-0.022,-0.03,-0.01,0.05,0.25,-0.52,0.13,106289.352
2022-04-27 11:44:38.0500,-0.03,-0.985,-0.012,-0.01,-0.05,0.16,0.31,-0.44,0.12,106289.352
2022-04-27 11:44:38.0600,-0.031,-0.978,0.001,0.02,-0.19,0.05,0.37,-0.38,0.12,106289.352
2022-04-27 11:44:38.0700,-0.033,-0.968,0.018,0.02,-0.19,0.05,0.4,-0.32,0.1,106289.352
2022-04-27 11:44:38.0800,-0.036,-0.963,0.036,0.03,-0.28,-0.06,0.41,-0.27,0.07,106289.352
2022-04-27 11:44:38.0900,-0.032,-0.961,0.047,0.04,-0.35,-0.2,0.42,-0.23,0.03,106289.352
2022-04-27 11:44:38.1000,-0.027,-0.96,0.057,0.04,-0.38,-0.3,0.41,-0.21,-0.01,106289.352
2022-04-27 11:44:38.1100,-0.022,-0.965,0.067,-0.02,-0.4,-0.35,0.4,-0.21,-0.04,106289.352
2022-04-27 11:44:38.1250,-0.019,-0.967,0.077,-0.09,-0.32,-0.47,0.37,-0.21,-0.06,106289.352
2022-04-27 11:44:38.1290,-0.019,-0.963,0.089,-0.09,-0.34,-0.55,0.34,-0.22,-0.08,106289.352
2022-04-27 11:44:38.1390,-0.019,-0.959,0.099,-0.09,-0.34,-0.55,0.28,-0.24,-0.11,106289.352
2022-04-27 11:44:38.1490,-0.018,-0.959,0.102,-0.07,-0.39,-0.63,0.22,-0.28,-0.13,106289.352
2022-04-27 11:44:38.1590,-0.014,-0.964,0.099,-0.07,-0.41,-0.67,0.17,-0.33,-0.14,106289.352
2022-04-27 11:44:38.1690,-0.01,-0.967,0.095,-0.09,-0.37,-0.64,0.11,-0.36,-0.14,106289.352
2022-04-27 11:44:38.1790,-0.005,-0.964,0.087,-0.1,-0.33,-0.6,0.06,-0.4,-0.13,106289.352
2022-04-27 11:44:38.1890,0.001,-0.962,0.077,-0.15,-0.33,-0.53,0.04,-0.43,-0.11,106289.352
2022-04-27 11:44:38.1990,0.007,-0.969,0.07,-0.18,-0.37,-0.43,0.04,-0.45,-0.09,106289.352
2022-04-27 11:44:38.2090,0.013,-0.974,0.062,-0.23,-0.33,-0.34,0.04,-0.46,-0.06,106289.352
2022-04-27 11:44:38.2190,0.02,-0.98,0.053,-0.28,-0.27,-0.27,0.05,-0.48,-0.03,106289.352
2022-04-27 11:44:38.2290,0.018,-0.982,0.057,-0.35,-0.22,-0.16,0.06,-0.49,0.0,106289.352
2022-04-27 11:44:38.2390,0.013,-0.982,0.058,-0.36,-0.17,-0.16,0.05,-0.49,0.03,106289.352
2022-04-27 11:44:38.2490,0.009,-0.982,0.061,-0.28,-0.17,-0.2,0.05,-0.49,0.04,106289.352
2022-04-27 11:44:38.2590,0.004,-0.986,0.066,-0.28,-0.17,-0.2,0.04,-0.47,0.06,106289.352
2022-04-27 11:44:38.2690,0.001,-0.989,0.067,-0.23,-0.15,-0.23,0.0,-0.45,0.05,106289.352
2022-04-27 11:44:38.2790,0.002,-0.987,0.072,-0.2,-0.11,-0.26,-0.03,-0.46,0.05,106289.352
2022-04-27 11:44:38.2880,0.003,-0.988,0.076,-0.19,-0.11,-0.29,-0.09,-0.45,0.05,106289.352
2022-04-27 11:44:38.3030,-0.0,-0.988,0.064,-0.2,-0.11,-0.32,-0.13,-0.44,0.04,106289.352
2022-04-27 11:44:38.2980,0.007,-0.99,0.043,-0.21,-0.11,-0.13,-0.14,-0.42,0.03,106289.352
2022-04-27 11:44:38.3180,0.016,-0.989,0.031,-0.33,-0.09,0.02,-0.11,-0.39,0.03,106289.352
2022-04-27 11:44:38.3280,0.013,-0.989,0.025,-0.34,-0.1,0.08,-0.07,-0.35,0.04,106289.352
2022-04-27 11:44:38.3380,0.008,-0.982,0.024,-0.3,-0.14,0.11,-0.02,-0.3,0.04,106289.352
2022-04-27 11:44:38.3530,-0.005,-0.976,0.035,-0.19,-0.22,0.03,0.02,-0.24,0.03,106289.352
2022-04-27 11:44:38.3590,-0.011,-0.974,0.04,-0.10374919384717941,-0.24,-0.04,0.04,-0.19,0.02,106289.352
2022-04-27 11:44:38.3680,-0.016,-0.97,0.041,-0.11,-0.24,-0.04,0.04,-0.16,0.02,106289.352
2022-04-27 11:44:38.3780,-0.025,-0.963,0.042,-0.06,-0.27,-0.05,0.04,-0.14,0.02,106289.352
2022-04-27 11:44:38.3880,-0.032,-0.956,0.048,0.01,-0.33,-0.06,0.03,-0.1,0.01,106289.352
2022-04-27 11:44:38.3980,-0.035,-0.956,0.052,0.08,-0.41,-0.1,0.02,-0.06,-0.02,106289.352
2022-04-27 11:44:38.4080,-0.028,-0.966,0.056,0.14,-0.44,-0.15,0.01,-0.04,-0.02,106289.352
2022-04-27 11:44:38.4180,-0.006,-0.985,0.054,0.13,-0.37,-0.18,-0.01,-0.03,-0.03,106289.352
2022-04-27 11:44:38.4280,0.018,-1.008,0.042,-0.05,-0.22,-0.2,-0.03,-0.03,-0.01,106289.352
2022-04-27 11:44:38.4380,0.039,-1.027,0.033,-0.28,0.0,-0.12,-0.02,-0.05,0.03,106289.352
2022-04-27 11:44:38.4480,0.044,-1.04,0.027,-0.63,0.36,0.06,-0.01,-0.07,0.07,106289.352
2022-04-27 11:44:38.4580,0.04,-1.037,0.027,-0.63,0.36,0.06,0.01,-0.1,0.11,106289.352
2022-04-27 11:44:38.4670,0.027,-1.028,0.033,-0.62,0.39,0.08,0.02,-0.14,0.14,106289.352
2022-04-27 11:44:38.4770,0.014,-1.018,0.04,-0.55,0.31,0.04,0.04,-0.17,0.15,106289.352
2022-04-27 11:44:38.4870,0.004,-1.008,0.044,-0.42,0.22,-0.02,0.05,-0.18,0.16,106289.352
2022-04-27 11:44:38.4970,-0.003,-0.999,0.048,-0.27,0.02,-0.09,0.08,-0.18,0.15,106289.352
2022-04-27 11:44:38.5070,-0.007,-0.995,0.054,-0.27,0.02,-0.09,0.11,-0.18,0.15,106289.352
2022-04-27 11:44:38.5170,-0.014,-0.994,0.065,-0.22,-0.03,-0.14,0.13,-0.18,0.16,106289.352
2022-04-27 11:44:38.5270,-0.023,-0.988,0.073,-0.19,-0.05,-0.21,0.13,-0.16,0.16,106289.352
2022-04-27 11:44:38.5370,-0.032,-0.985,0.075,-0.11,-0.08,-0.3,0.14,-0.15,0.17,106289.352
2022-04-27 11:44:38.5470,-0.043,-0.986,0.066,0.05,-0.13,-0.26,0.16,-0.12,0.16,106289.352
2022-04-27 11:44:38.5570,-0.058,-0.986,0.059,0.05,-0.13,-0.26,0.18,-0.1,0.16,106289.352
2022-04-27 11:44:38.5670,-0.07,-0.983,0.055,0.3,-0.14,-0.09,0.21,-0.11,0.14,106289.352
2022-04-27 11:44:38.5770,-0.078,-0.982,0.062,0.3,-0.14,-0.09,0.25,-0.11,0.12,106289.352
2022-04-27 11:44:38.5870,-0.081,-0.984,0.072,0.38,-0.17,-0.09,0.28,-0.11,0.09,106289.352
2022-04-27 11:44:38.5970,-0.077,-0.988,0.084,0.43,-0.15,-0.17,0.31,-0.12,0.07,106289.352
2022-04-27 11:44:38.6070,-0.074,-0.992,0.099,0.4,-0.12,-0.24,0.31,-0.13,0.06,106289.352
2022-04-27 11:44:38.6180,-0.071,-0.996,0.104,0.35,-0.07,-0.35,0.32,-0.14,0.05,106289.352
2022-04-27 11:44:38.6260,-0.066,-0.997,0.097,0.28,-0.01,-0.35,0.32,-0.16,0.05,106289.352
2022-04-27 11:44:38.6360,-0.062,-0.993,0.094,0.28,-0.01,-0.35,0.33,-0.15,0.05,106289.352
2022-04-27 11:44:38.6470,-0.058,-0.986,0.095,0.24,-0.03,-0.27,0.34,-0.14,0.05,106289.352
2022-04-27 11:44:38.6570,-0.057,-0.977,0.092,0.19,-0.08,-0.24,0.33,-0.13,0.05,106289.352
2022-04-27 11:44:38.6660,-0.057,-0.966,0.089,0.16,-0.16,-0.2,0.31,-0.12,0.05,106289.352
2022-04-27 11:44:38.6760,-0.058,-0.951,0.087,0.16,-0.26,-0.13,0.29,-0.14,0.05,106289.352
2022-04-27 11:44:38.6860,-0.056,-0.945,0.087,0.16,-0.39,-0.08,0.29,-0.15,0.05,106289.352
2022-04-27 11:44:38.6960,-0.059,-0.949,0.085,0.15,-0.49,-0.05,0.29,-0.17,0.04,106289.352
2022-04-27 11:44:38.7060,-0.05,-0.961,0.09,0.16,-0.48,-0.01,0.28,-0.21,0.04,106289.352
2022-04-27 11:44:38.7160,-0.032,-0.98,0.105,0.13,-0.39,0.01,0.28,-0.24,0.05,106289.352
2022-04-27 11:44:38.7260,-0.009,-1.006,0.13,-0.23,0.0,-0.26,0.24,-0.25,0.08,106289.352
2022-04-27 11:44:38.7360,0.014,-1.03,0.161,-0.23,0.0,-0.26,0.18,-0.25,0.12,106289.352
2022-04-27 11:44:38.7460,0.018,-1.048,0.186,-0.5,0.27,-0.53,0.09,-0.25,0.19,106289.352
2022-04-27 11:44:38.7560,0.015,-1.064,0.21,-0.62,0.46,-0.8,-0.03,-0.26,0.25,106289.352
2022-04-27 11:44:38.7660,0.009,-1.076,0.239,-0.63,0.63,-1.03,-0.17,-0.28,0.31,106289.352
2022-04-27 11:44:38.7760,0.006,-1.08,0.257,-0.59,0.75,-1.31,-0.32,-0.25,0.37,106289.352
2022-04-27 11:44:38.7860,-0.013,-1.078,0.26,-0.62,0.84,-1.59,-0.49,-0.25,0.41,106289.352
2022-04-27 11:44:38.7950,-0.031,-1.068,0.241,-0.5,0.82,-1.71,-0.64,-0.22,0.42,106289.352
2022-04-27 11:44:38.8050,-0.064,-1.045,0.197,-0.37,0.77,-1.67,-0.76,-0.15,0.39,106289.352
2022-04-27 11:44:38.8150,-0.102,-1.022,0.136,-0.15,0.57,-1.4,-0.83,-0.13,0.33,106289.352
2022-04-27 11:44:38.8250,-0.123,-0.995,0.072,0.21,0.34,-0.94,-0.87,-0.17,0.24,106289.352
2022-04-27 11:44:38.8350,-0.121,-1.012,0.002,0.46,0.06,-0.36,-0.96,-0.38,0.2,106289.352
2022-04-27 11:44:38.8450,-0.087,-1.041,-0.042,0.53,0.01,0.15,-1.11,-0.78,0.24,106289.352
2022-04-27 11:44:38.8550,-0.077,-1.024,-0.045,0.25,0.37,0.69,-1.2,-1.08,0.3,106289.352
2022-04-27 11:44:38.8650,-0.135,-0.968,-0.041,-0.03,0.39,0.7,-1.16,-1.34,0.35,106289.352
2022-04-27 11:44:38.8750,-0.229,-0.913,-0.037,0.28,-0.09,0.56,-1.05,-1.55,0.36,106289.352
2022-04-27 11:44:38.8850,-0.259,-0.864,0.023,1.01,-0.55,0.47,-0.92,-1.65,0.31,106289.352
2022-04-27 11:44:38.8950,-0.189,-0.906,0.037,1.81,-1.25,0.01,-0.8,-1.57,0.2,106289.352
2022-04-27 11:44:38.9050,-0.219,-0.948,-0.004,1.22,-1.09,-0.51,-0.67,-1.69,0.2,106289.352
2022-04-27 11:44:38.9150,-0.298,-0.912,0.027,0.9,-0.54,-0.24,-0.56,-1.74,0.15,106289.352
2022-04-27 11:44:38.9250,-0.285,-0.875,0.061,1.86,-0.67,-0.24,-0.43,-1.64,0.0,106289.352
2022-04-27 11:44:38.9350,-0.229,-0.854,0.068,1.99,-1.06,-0.75,-0.23,-1.56,-0.17,106289.352
2022-04-27 11:44:38.9450,-0.203,-0.872,0.082,1.58,-1.35,-0.87,-0.04,-1.38,-0.33,106289.352
2022-04-27 11:44:38.9550,-0.211,-0.901,0.071,1.11,-1.33,-0.97,0.14,-1.2,-0.46,106289.352
2022-04-27 11:44:38.9650,-0.17,-0.926,0.043,1.25,-1.03,-0.98,0.31,-1.0,-0.59,106289.352
2022-04-27 11:44:38.9750,-0.107,-0.986,0.022,1.09,-0.8,-0.7,0.43,-0.69,-0.67,106289.352
2022-04-27 11:44:38.9850,-0.057,-1.082,-0.013,0.55,-0.39,-0.39,0.5,-0.48,-0.67,106289.352
2022-04-27 11:44:38.9940,0.078,-1.135,-0.037,0.13,0.46,-0.11,0.55,-0.42,-0.57,106289.352
2022-04-27 11:44:39.0040,0.188,-1.151,-0.016,-0.77,1.22,0.32,0.56,-0.38,-0.42,106289.352
2022-04-27 11:44:39.0150,0.194,-1.159,0.027,-2.13,1.42,0.3,0.53,-0.37,-0.25,106289.352
2022-04-27 11:44:39.0240,0.17,-1.122,0.103,-2.48,1.58,0.02,0.48,-0.3,-0.13,106289.352
2022-04-27 11:44:39.0340,0.121,-1.063,0.162,-2.29,1.4,-0.57,0.34,-0.17,-0.05,106289.352
2022-04-27 11:44:39.0440,0.065,-1.012,0.164,-1.33,0.31,-1.42,0.21,-0.11,-0.0,106289.352
2022-04-27 11:44:39.0550,0.016,-0.976,0.168,-1.33,0.31,-1.42,0.1,-0.01,0.0,106289.352
2022-04-27 11:44:39.0640,-0.028,-0.957,0.144,-0.84,-0.12,-1.43,-0.04,0.11,-0.02,104771.797
2022-04-27 11:44:39.0740,-0.058,-0.946,0.11,-0.37,-0.36,-1.33,-0.14,0.23,-0.02,104771.797
2022-04-27 11:44:39.0840,-0.094,-0.935,0.08,-0.05,-0.48,-1.01,-0.19,0.39,-0.04,104771.797
2022-04-27 11:44:39.0940,-0.126,-0.928,0.037,0.28,-0.59,-0.73,-0.17,0.56,-0.07,104771.797
2022-04-27 11:44:39.1040,-0.134,-0.93,-0.027,0.64,-0.68,-0.4,-0.1,0.67,-0.12,104771.797
2022-04-27 11:44:39.1140,-0.131,-0.938,-0.09,0.83,-0.69,0.15,0.03,0.67,-0.17,104771.797
2022-04-27 11:44:39.1240,-0.119,-0.957,-0.111,0.84,-0.64,0.8,0.17,0.62,-0.22,104771.797
2022-04-27 11:44:39.1340,-0.11,-0.974,-0.077,0.77,-0.49,1.21,0.37,0.61,-0.27,104771.797
2022-04-27 11:44:39.1440,-0.098,-0.989,-0.012,0.68,-0.31,1.1,0.64,0.72,-0.33,104771.797
2022-04-27 11:44:39.1550,-0.067,-1.014,0.077,0.63,-0.16,0.62,0.91,0.97,-0.38,104771.797
2022-04-27 11:44:39.1630,-0.035,-1.034,0.184,0.41,0.06,-0.11,1.2,1.37,-0.45,104771.797
2022-04-27 11:44:39.1760,0.01,-1.086,0.163,0.18,0.23,-1.07,1.17,1.54,-0.47,104771.797
2022-04-27 11:44:39.1830,0.027,-1.084,0.155,-0.23,0.67,-1.28,1.0,1.4,-0.42,104771.797
2022-04-27 11:44:39.1930,-0.008,-1.031,0.243,-0.53,0.95,-0.77,0.78,1.23,-0.41,104771.797
2022-04-27 11:44:39.2030,-0.028,-0.981,0.296,-0.29,0.52,-1.38,0.5,1.01,-0.43,104771.797
2022-04-27 11:44:39.2130,-0.028,-0.97,0.331,0.06,0.02,-2.0,0.18,0.82,-0.44,104771.797
2022-04-27 11:44:39.2230,-0.009,-1.014,0.316,0.09,-0.01,-2.46,-0.14,0.67,-0.41,104771.797
2022-04-27 11:44:39.2330,0.026,-1.038,0.261,0.09,-0.01,-2.46,-0.37,0.54,-0.34,104771.797
2022-04-27 11:44:39.2430,0.038,-1.044,0.181,-0.22,0.34,-2.08,-0.51,0.39,-0.23,104771.797
2022-04-27 11:44:39.2530,0.03,-1.049,0.085,-0.43,0.44,-1.44,-0.59,0.2,-0.12,104771.797
2022-04-27 11:44:39.2630,0.026,-1.053,0.012,-0.38,0.47,-0.57,-0.58,0.01,0.0,104771.797
2022-04-27 11:44:39.2730,0.027,-1.039,-0.027,-0.31,0.51,0.19,-0.52,-0.18,0.11,104771.797
2022-04-27 11:44:39.2830,0.008,-1.009,-0.016,-0.33,0.48,0.68,-0.42,-0.32,0.18,104771.797
2022-04-27 11:44:39.2930,-0.036,-0.955,0.022,-0.25,0.21,0.71,-0.31,-0.37,0.18,104771.797
2022-04-27 11:44:39.3020,-0.121,-0.862,0.056,0.05,-0.2,0.33,-0.16,-0.31,0.11,104771.797
